# COSI coordinate transformer output
# OSI2 magnet V1 shimming coils on
# Date,240913
# x[m],y[m],z[m],Bx[T],By[T],Bz[T]
-0.00051,-0.08482,-0.00069,-0.00002,-0.00208,-0.04750
-0.03829,-0.07538,0.00875,-0.00001,-0.00208,-0.04750
-0.03829,-0.07538,-0.00069,0.00000,-0.00208,-0.04749
-0.03829,-0.07538,-0.01013,0.00002,-0.00207,-0.04749
-0.02884,-0.07538,-0.01958,0.00003,-0.00206,-0.04749
-0.02884,-0.07538,-0.01013,0.00001,-0.00207,-0.04750
-0.02884,-0.07538,-0.00069,0.00000,-0.00207,-0.04750
-0.02884,-0.07538,0.00875,0.00000,-0.00207,-0.04750
-0.02884,-0.07538,0.01820,-0.00000,-0.00207,-0.04751
-0.01940,-0.07538,0.02764,-0.00001,-0.00208,-0.04752
-0.01940,-0.07538,0.01820,-0.00001,-0.00207,-0.04751
-0.01940,-0.07538,0.00875,0.00000,-0.00207,-0.04751
-0.01940,-0.07538,-0.00069,0.00000,-0.00206,-0.04751
-0.01940,-0.07538,-0.01013,0.00001,-0.00206,-0.04750
-0.01940,-0.07538,-0.01958,0.00001,-0.00207,-0.04750
-0.01940,-0.07538,-0.02902,0.00001,-0.00206,-0.04750
-0.00995,-0.07538,-0.03847,0.00001,-0.00205,-0.04750
-0.00995,-0.07538,-0.02902,-0.00002,-0.00205,-0.04751
-0.00995,-0.07538,-0.01958,-0.00001,-0.00206,-0.04750
-0.00995,-0.07538,-0.01013,0.00000,-0.00206,-0.04750
-0.00995,-0.07538,-0.00069,-0.00002,-0.00207,-0.04750
-0.00995,-0.07538,0.00875,-0.00001,-0.00207,-0.04751
-0.00995,-0.07538,0.01820,-0.00001,-0.00208,-0.04751
-0.00995,-0.07538,0.02764,-0.00001,-0.00208,-0.04752
-0.00995,-0.07538,0.03709,-0.00002,-0.00208,-0.04753
-0.00051,-0.07538,0.03709,-0.00001,-0.00208,-0.04754
-0.00051,-0.07538,0.02764,-0.00002,-0.00208,-0.04753
-0.00051,-0.07538,0.01820,-0.00001,-0.00208,-0.04752
-0.00051,-0.07538,0.00875,-0.00002,-0.00209,-0.04751
-0.00051,-0.07538,-0.00069,-0.00002,-0.00208,-0.04751
-0.00051,-0.07538,-0.01013,-0.00002,-0.00207,-0.04751
-0.00051,-0.07538,-0.01958,-0.00002,-0.00206,-0.04751
-0.00051,-0.07538,-0.02902,-0.00002,-0.00205,-0.04750
-0.00051,-0.07538,-0.03847,-0.00001,-0.00205,-0.04751
0.00893,-0.07538,-0.03847,-0.00005,-0.00205,-0.04750
0.00893,-0.07538,-0.02902,-0.00004,-0.00206,-0.04750
0.00893,-0.07538,-0.01958,-0.00003,-0.00206,-0.04750
0.00893,-0.07538,-0.01013,-0.00004,-0.00207,-0.04750
0.00893,-0.07538,-0.00069,-0.00003,-0.00208,-0.04751
0.00893,-0.07538,0.00875,-0.00003,-0.00209,-0.04751
0.00893,-0.07538,0.01820,-0.00001,-0.00209,-0.04752
0.00893,-0.07538,0.02764,-0.00003,-0.00209,-0.04752
0.00893,-0.07538,0.03709,-0.00003,-0.00209,-0.04753
0.01838,-0.07538,0.02764,-0.00003,-0.00209,-0.04753
0.01838,-0.07538,0.01820,-0.00002,-0.00208,-0.04752
0.01838,-0.07538,0.00875,-0.00003,-0.00209,-0.04751
0.01838,-0.07538,-0.00069,-0.00002,-0.00207,-0.04751
0.01838,-0.07538,-0.01013,-0.00004,-0.00208,-0.04750
0.01838,-0.07538,-0.01958,-0.00003,-0.00206,-0.04749
0.01838,-0.07538,-0.02902,-0.00005,-0.00206,-0.04749
0.02782,-0.07538,-0.01958,-0.00004,-0.00207,-0.04749
0.02782,-0.07538,-0.01013,-0.00004,-0.00208,-0.04749
0.02782,-0.07538,-0.00069,-0.00004,-0.00209,-0.04750
0.02782,-0.07538,0.00875,-0.00003,-0.00209,-0.04751
0.02782,-0.07538,0.01820,-0.00003,-0.00209,-0.04751
0.03727,-0.07538,0.00875,-0.00003,-0.00208,-0.04751
0.03727,-0.07538,-0.00069,-0.00005,-0.00208,-0.04749
0.03727,-0.07538,-0.01013,-0.00005,-0.00207,-0.04749
0.04671,-0.06593,0.01820,-0.00004,-0.00209,-0.04750
0.04671,-0.06593,0.00875,-0.00004,-0.00211,-0.04751
0.04671,-0.06593,-0.00069,-0.00006,-0.00207,-0.04750
0.04671,-0.06593,-0.01013,-0.00006,-0.00208,-0.04749
0.04671,-0.06593,-0.01958,-0.00006,-0.00205,-0.04749
0.03727,-0.06593,-0.02902,-0.00007,-0.00205,-0.04748
0.03727,-0.06593,-0.01958,-0.00006,-0.00206,-0.04749
0.03727,-0.06593,-0.01013,-0.00005,-0.00207,-0.04749
0.03727,-0.06593,-0.00069,-0.00006,-0.00207,-0.04750
0.03727,-0.06593,0.00875,-0.00004,-0.00207,-0.04751
0.03727,-0.06593,0.01820,-0.00004,-0.00208,-0.04751
0.03727,-0.06593,0.02764,-0.00003,-0.00209,-0.04752
0.03727,-0.06593,0.03709,-0.00003,-0.00209,-0.04753
0.02782,-0.06593,0.03709,-0.00004,-0.00209,-0.04754
0.02782,-0.06593,0.02764,-0.00003,-0.00208,-0.04753
0.02782,-0.06593,0.01820,-0.00003,-0.00208,-0.04752
0.02782,-0.06593,0.00875,-0.00004,-0.00208,-0.04752
0.02782,-0.06593,-0.00069,-0.00004,-0.00206,-0.04750
0.02782,-0.06593,-0.01013,-0.00005,-0.00205,-0.04750
0.02782,-0.06593,-0.01958,-0.00005,-0.00205,-0.04750
0.02782,-0.06593,-0.02902,-0.00006,-0.00205,-0.04750
0.02782,-0.06593,-0.03847,-0.00006,-0.00203,-0.04750
0.01838,-0.06593,-0.04791,-0.00007,-0.00201,-0.04751
0.01838,-0.06593,-0.03847,-0.00005,-0.00204,-0.04751
0.01838,-0.06593,-0.02902,-0.00006,-0.00205,-0.04751
0.01838,-0.06593,-0.01958,-0.00005,-0.00206,-0.04751
0.01838,-0.06593,-0.01013,-0.00004,-0.00206,-0.04751
0.01838,-0.06593,-0.00069,-0.00003,-0.00206,-0.04751
0.01838,-0.06593,0.00875,-0.00003,-0.00207,-0.04752
0.01838,-0.06593,0.01820,-0.00002,-0.00206,-0.04752
0.01838,-0.06593,0.02764,-0.00004,-0.00207,-0.04753
0.01838,-0.06593,0.03709,-0.00004,-0.00208,-0.04754
0.01838,-0.06593,0.04653,-0.00003,-0.00208,-0.04755
0.00893,-0.06593,0.04653,-0.00002,-0.00208,-0.04756
0.00893,-0.06593,0.03709,-0.00003,-0.00208,-0.04755
0.00893,-0.06593,0.02764,-0.00002,-0.00207,-0.04753
0.00893,-0.06593,0.01820,-0.00002,-0.00207,-0.04752
0.00893,-0.06593,0.00875,-0.00004,-0.00206,-0.04752
0.00893,-0.06593,-0.00069,-0.00002,-0.00206,-0.04751
0.00893,-0.06593,-0.01013,-0.00003,-0.00206,-0.04751
0.00893,-0.06593,-0.01958,-0.00004,-0.00205,-0.04751
0.00893,-0.06593,-0.02902,-0.00004,-0.00204,-0.04751
0.00893,-0.06593,-0.03847,-0.00004,-0.00204,-0.04751
0.00893,-0.06593,-0.04791,-0.00005,-0.00202,-0.04751
-0.00051,-0.06593,-0.04791,-0.00003,-0.00203,-0.04752
-0.00051,-0.06593,-0.03847,-0.00003,-0.00204,-0.04751
-0.00051,-0.06593,-0.02902,-0.00002,-0.00204,-0.04751
-0.00051,-0.06593,-0.01958,-0.00002,-0.00204,-0.04751
-0.00051,-0.06593,-0.01013,-0.00003,-0.00206,-0.04751
-0.00051,-0.06593,-0.00069,-0.00002,-0.00206,-0.04751
-0.00051,-0.06593,0.00875,-0.00003,-0.00206,-0.04752
-0.00051,-0.06593,0.01820,-0.00003,-0.00207,-0.04752
-0.00051,-0.06593,0.02764,-0.00003,-0.00207,-0.04753
-0.00051,-0.06593,0.03709,-0.00003,-0.00207,-0.04754
-0.00051,-0.06593,0.04653,-0.00002,-0.00208,-0.04755
-0.00995,-0.06593,0.04653,-0.00001,-0.00207,-0.04755
-0.00995,-0.06593,0.03709,-0.00002,-0.00207,-0.04754
-0.00995,-0.06593,0.02764,-0.00003,-0.00207,-0.04753
-0.00995,-0.06593,0.01820,-0.00001,-0.00206,-0.04752
-0.00995,-0.06593,0.00875,-0.00001,-0.00207,-0.04752
-0.00995,-0.06593,-0.00069,-0.00001,-0.00206,-0.04751
-0.00995,-0.06593,-0.01013,-0.00001,-0.00207,-0.04751
-0.00995,-0.06593,-0.01958,-0.00001,-0.00204,-0.04751
-0.00995,-0.06593,-0.02902,-0.00000,-0.00204,-0.04751
-0.00995,-0.06593,-0.03847,-0.00002,-0.00202,-0.04752
-0.00995,-0.06593,-0.04791,-0.00001,-0.00202,-0.04752
-0.01940,-0.06593,-0.04791,0.00001,-0.00203,-0.04752
-0.01940,-0.06593,-0.03847,0.00000,-0.00202,-0.04752
-0.01940,-0.06593,-0.02902,0.00000,-0.00204,-0.04751
-0.01940,-0.06593,-0.01958,-0.00001,-0.00204,-0.04751
-0.01940,-0.06593,-0.01013,-0.00002,-0.00204,-0.04751
-0.01940,-0.06593,-0.00069,-0.00001,-0.00205,-0.04751
-0.01940,-0.06593,0.00875,-0.00000,-0.00206,-0.04751
-0.01940,-0.06593,0.01820,-0.00002,-0.00206,-0.04752
-0.01940,-0.06593,0.02764,-0.00002,-0.00207,-0.04753
-0.01940,-0.06593,0.03709,-0.00002,-0.00207,-0.04753
-0.01940,-0.06593,0.04653,-0.00003,-0.00207,-0.04755
-0.02884,-0.06593,0.03709,-0.00002,-0.00206,-0.04754
-0.02884,-0.06593,0.02764,-0.00002,-0.00207,-0.04753
-0.02884,-0.06593,0.01820,-0.00001,-0.00205,-0.04752
-0.02884,-0.06593,0.00875,0.00000,-0.00205,-0.04751
-0.02884,-0.06593,-0.00069,0.00001,-0.00205,-0.04750
-0.02884,-0.06593,-0.01013,0.00000,-0.00205,-0.04750
-0.02884,-0.06593,-0.01958,0.00001,-0.00204,-0.04751
-0.02884,-0.06593,-0.02902,0.00002,-0.00204,-0.04751
-0.02884,-0.06593,-0.03847,0.00002,-0.00202,-0.04751
-0.03829,-0.06593,-0.02902,0.00002,-0.00204,-0.04751
-0.03829,-0.06593,-0.01958,0.00002,-0.00204,-0.04750
-0.03829,-0.06593,-0.01013,0.00001,-0.00205,-0.04750
-0.03829,-0.06593,-0.00069,0.00000,-0.00205,-0.04750
-0.03829,-0.06593,0.00875,-0.00001,-0.00206,-0.04750
-0.03829,-0.06593,0.01820,-0.00001,-0.00205,-0.04750
-0.03829,-0.06593,0.02764,-0.00002,-0.00206,-0.04751
-0.03829,-0.06593,0.03709,-0.00001,-0.00206,-0.04752
-0.04773,-0.06593,0.01820,-0.00001,-0.00206,-0.04751
-0.04773,-0.06593,0.00875,0.00000,-0.00205,-0.04750
-0.04773,-0.06593,-0.00069,0.00002,-0.00205,-0.04749
-0.04773,-0.06593,-0.01013,0.00004,-0.00205,-0.04749
-0.04773,-0.06593,-0.01958,0.00004,-0.00203,-0.04749
-0.05718,-0.05649,0.02764,0.00001,-0.00205,-0.04749
-0.05718,-0.05649,0.01820,-0.00002,-0.00205,-0.04750
-0.05718,-0.05649,0.00875,-0.00001,-0.00204,-0.04749
-0.05718,-0.05649,-0.00069,0.00001,-0.00203,-0.04749
-0.05718,-0.05649,-0.01013,0.00003,-0.00202,-0.04749
-0.05718,-0.05649,-0.01958,0.00004,-0.00203,-0.04749
-0.05718,-0.05649,-0.02902,0.00005,-0.00203,-0.04749
-0.04773,-0.05649,-0.03847,0.00008,-0.00202,-0.04750
-0.04773,-0.05649,-0.02902,0.00004,-0.00202,-0.04751
-0.04773,-0.05649,-0.01958,0.00003,-0.00203,-0.04750
-0.04773,-0.05649,-0.01013,0.00001,-0.00204,-0.04750
-0.04773,-0.05649,-0.00069,0.00000,-0.00204,-0.04750
-0.04773,-0.05649,0.00875,0.00000,-0.00204,-0.04750
-0.04773,-0.05649,0.01820,0.00000,-0.00204,-0.04751
-0.04773,-0.05649,0.02764,-0.00002,-0.00204,-0.04751
-0.04773,-0.05649,0.03709,-0.00003,-0.00205,-0.04752
-0.03829,-0.05649,0.04653,-0.00003,-0.00205,-0.04753
-0.03829,-0.05649,0.03709,-0.00002,-0.00206,-0.04753
-0.03829,-0.05649,0.02764,-0.00001,-0.00205,-0.04752
-0.03829,-0.05649,0.01820,-0.00001,-0.00205,-0.04752
-0.03829,-0.05649,0.00875,0.00000,-0.00205,-0.04751
-0.03829,-0.05649,-0.00069,-0.00000,-0.00205,-0.04750
-0.03829,-0.05649,-0.01013,0.00001,-0.00204,-0.04751
-0.03829,-0.05649,-0.01958,0.00002,-0.00204,-0.04751
-0.03829,-0.05649,-0.02902,0.00002,-0.00202,-0.04751
-0.03829,-0.05649,-0.03847,0.00004,-0.00202,-0.04752
-0.03829,-0.05649,-0.04791,0.00005,-0.00202,-0.04752
-0.02884,-0.05649,-0.05736,0.00005,-0.00201,-0.04754
-0.02884,-0.05649,-0.04791,0.00002,-0.00202,-0.04754
-0.02884,-0.05649,-0.03847,0.00002,-0.00202,-0.04753
-0.02884,-0.05649,-0.02902,0.00002,-0.00204,-0.04752
-0.02884,-0.05649,-0.01958,0.00001,-0.00204,-0.04751
-0.02884,-0.05649,-0.01013,-0.00000,-0.00205,-0.04751
-0.02884,-0.05649,-0.00069,-0.00001,-0.00204,-0.04751
-0.02884,-0.05649,0.00875,-0.00001,-0.00205,-0.04752
-0.02884,-0.05649,0.01820,-0.00003,-0.00205,-0.04752
-0.02884,-0.05649,0.02764,-0.00002,-0.00206,-0.04752
-0.02884,-0.05649,0.03709,-0.00002,-0.00206,-0.04753
-0.02884,-0.05649,0.04653,-0.00002,-0.00205,-0.04754
-0.02884,-0.05649,0.05598,-0.00003,-0.00206,-0.04755
-0.01940,-0.05649,0.05598,-0.00002,-0.00205,-0.04755
-0.01940,-0.05649,0.04653,-0.00003,-0.00206,-0.04755
-0.01940,-0.05649,0.03709,-0.00002,-0.00206,-0.04754
-0.01940,-0.05649,0.02764,-0.00002,-0.00206,-0.04753
-0.01940,-0.05649,0.01820,-0.00002,-0.00206,-0.04752
-0.01940,-0.05649,0.00875,-0.00001,-0.00205,-0.04752
-0.01940,-0.05649,-0.00069,-0.00001,-0.00205,-0.04752
-0.01940,-0.05649,-0.01013,-0.00001,-0.00205,-0.04752
-0.01940,-0.05649,-0.01958,-0.00001,-0.00204,-0.04752
-0.01940,-0.05649,-0.02902,0.00000,-0.00204,-0.04752
-0.01940,-0.05649,-0.03847,0.00000,-0.00203,-0.04752
-0.01940,-0.05649,-0.04791,0.00001,-0.00202,-0.04753
-0.01940,-0.05649,-0.05736,-0.00000,-0.00201,-0.04755
-0.00995,-0.05649,-0.05736,-0.00002,-0.00201,-0.04755
-0.00995,-0.05649,-0.04791,-0.00002,-0.00203,-0.04754
-0.00995,-0.05649,-0.03847,-0.00001,-0.00203,-0.04753
-0.00995,-0.05649,-0.02902,-0.00001,-0.00204,-0.04753
-0.00995,-0.05649,-0.01958,-0.00001,-0.00205,-0.04752
-0.00995,-0.05649,-0.01013,-0.00003,-0.00205,-0.04752
-0.00995,-0.05649,-0.00069,-0.00003,-0.00205,-0.04752
-0.00995,-0.05649,0.00875,-0.00003,-0.00206,-0.04752
-0.00995,-0.05649,0.01820,-0.00002,-0.00206,-0.04752
-0.00995,-0.05649,0.02764,-0.00003,-0.00206,-0.04753
-0.00995,-0.05649,0.03709,-0.00002,-0.00206,-0.04754
-0.00995,-0.05649,0.04653,-0.00004,-0.00206,-0.04755
-0.00995,-0.05649,0.05598,-0.00003,-0.00206,-0.04755
-0.00051,-0.05649,0.05598,-0.00004,-0.00206,-0.04756
-0.00051,-0.05649,0.04653,-0.00004,-0.00207,-0.04755
-0.00051,-0.05649,0.03709,-0.00003,-0.00206,-0.04754
-0.00051,-0.05649,0.02764,-0.00003,-0.00206,-0.04754
-0.00051,-0.05649,0.01820,-0.00003,-0.00206,-0.04753
-0.00051,-0.05649,0.00875,0.00000,0.00000,0.00000
-0.00051,-0.05649,-0.00069,-0.00004,-0.00205,-0.04752
-0.00051,-0.05649,-0.01013,-0.00003,-0.00205,-0.04752
-0.00051,-0.05649,-0.01958,-0.00002,-0.00206,-0.04752
-0.00051,-0.05649,-0.02902,-0.00003,-0.00204,-0.04752
-0.00051,-0.05649,-0.03847,-0.00003,-0.00203,-0.04753
-0.00051,-0.05649,-0.04791,-0.00002,-0.00202,-0.04754
-0.00051,-0.05649,-0.05736,-0.00003,-0.00200,-0.04755
0.00893,-0.05649,-0.05736,-0.00006,-0.00201,-0.04755
0.00893,-0.05649,-0.04791,-0.00005,-0.00201,-0.04754
0.00893,-0.05649,-0.03847,-0.00004,-0.00203,-0.04753
0.00893,-0.05649,-0.02902,-0.00005,-0.00204,-0.04752
0.00893,-0.05649,-0.01958,-0.00004,-0.00204,-0.04752
0.00893,-0.05649,-0.01013,-0.00004,-0.00205,-0.04752
0.00893,-0.05649,-0.00069,-0.00004,-0.00205,-0.04752
0.00893,-0.05649,0.00875,-0.00004,-0.00206,-0.04752
0.00893,-0.05649,0.01820,-0.00004,-0.00206,-0.04752
0.00893,-0.05649,0.02764,-0.00004,-0.00206,-0.04753
0.00893,-0.05649,0.03709,-0.00004,-0.00207,-0.04754
0.00893,-0.05649,0.04653,-0.00004,-0.00208,-0.04755
0.00893,-0.05649,0.05598,-0.00004,-0.00207,-0.04756
0.01838,-0.05649,0.05598,-0.00004,-0.00206,-0.04756
0.01838,-0.05649,0.04653,-0.00004,-0.00207,-0.04756
0.01838,-0.05649,0.03709,-0.00003,-0.00207,-0.04755
0.01838,-0.05649,0.02764,-0.00003,-0.00207,-0.04754
0.01838,-0.05649,0.01820,-0.00003,-0.00208,-0.04753
0.01838,-0.05649,0.00875,-0.00003,-0.00206,-0.04752
0.01838,-0.05649,-0.00069,-0.00004,-0.00206,-0.04752
0.01838,-0.05649,-0.01013,-0.00003,-0.00206,-0.04752
0.01838,-0.05649,-0.01958,-0.00004,-0.00205,-0.04752
0.01838,-0.05649,-0.02902,-0.00004,-0.00204,-0.04752
0.01838,-0.05649,-0.03847,-0.00004,-0.00203,-0.04752
0.01838,-0.05649,-0.04791,-0.00005,-0.00201,-0.04752
0.01838,-0.05649,-0.05736,-0.00005,-0.00200,-0.04754
0.02782,-0.05649,-0.05736,-0.00008,-0.00200,-0.04753
0.02782,-0.05649,-0.04791,-0.00007,-0.00201,-0.04752
0.02782,-0.05649,-0.03847,-0.00007,-0.00203,-0.04751
0.02782,-0.05649,-0.02902,-0.00005,-0.00204,-0.04751
0.02782,-0.05649,-0.01958,-0.00006,-0.00205,-0.04751
0.02782,-0.05649,-0.01013,-0.00006,-0.00205,-0.04751
0.02782,-0.05649,-0.00069,-0.00005,-0.00206,-0.04751
0.02782,-0.05649,0.00875,-0.00003,-0.00207,-0.04752
0.02782,-0.05649,0.01820,-0.00004,-0.00208,-0.04752
0.02782,-0.05649,0.02764,-0.00004,-0.00207,-0.04753
0.02782,-0.05649,0.03709,-0.00004,-0.00208,-0.04754
0.02782,-0.05649,0.04653,-0.00004,-0.00207,-0.04755
0.02782,-0.05649,0.05598,-0.00004,-0.00207,-0.04756
0.03727,-0.05649,0.04653,-0.00003,-0.00208,-0.04755
0.03727,-0.05649,0.03709,-0.00002,-0.00208,-0.04754
0.03727,-0.05649,0.02764,-0.00003,-0.00208,-0.04754
0.03727,-0.05649,0.01820,-0.00003,-0.00208,-0.04752
0.03727,-0.05649,0.00875,-0.00004,-0.00207,-0.04751
0.03727,-0.05649,-0.00069,-0.00004,-0.00207,-0.04751
0.03727,-0.05649,-0.01013,-0.00004,-0.00206,-0.04751
0.03727,-0.05649,-0.01958,-0.00006,-0.00205,-0.04751
0.03727,-0.05649,-0.02902,-0.00005,-0.00204,-0.04751
0.03727,-0.05649,-0.03847,-0.00007,-0.00203,-0.04751
0.03727,-0.05649,-0.04791,-0.00007,-0.00201,-0.04751
0.04671,-0.05649,-0.03847,-0.00007,-0.00202,-0.04751
0.04671,-0.05649,-0.02902,-0.00007,-0.00204,-0.04750
0.04671,-0.05649,-0.01958,-0.00007,-0.00204,-0.04750
0.04671,-0.05649,-0.01013,0.00000,0.00000,0.00000
0.04671,-0.05649,-0.00069,-0.00005,-0.00205,-0.04750
0.04671,-0.05649,0.00875,-0.00005,-0.00207,-0.04751
0.04671,-0.05649,0.01820,-0.00004,-0.00207,-0.04752
0.04671,-0.05649,0.02764,-0.00004,-0.00208,-0.04753
0.04671,-0.05649,0.03709,-0.00003,-0.00209,-0.04753
0.05616,-0.05649,0.02764,-0.00003,-0.00208,-0.04752
0.05616,-0.05649,0.01820,-0.00003,-0.00208,-0.04751
0.05616,-0.05649,0.00875,-0.00004,-0.00207,-0.04751
0.05616,-0.05649,-0.00069,-0.00005,-0.00206,-0.04750
0.05616,-0.05649,-0.01013,-0.00006,-0.00205,-0.04749
0.05616,-0.05649,-0.01958,-0.00006,-0.00205,-0.04749
0.05616,-0.05649,-0.02902,-0.00009,-0.00203,-0.04749
0.06560,-0.04704,0.01820,-0.00006,-0.00206,-0.04750
0.06560,-0.04704,0.00875,-0.00006,-0.00208,-0.04751
0.06560,-0.04704,-0.00069,-0.00005,-0.00207,-0.04751
0.06560,-0.04704,-0.01013,-0.00006,-0.00205,-0.04750
0.06560,-0.04704,-0.01958,-0.00007,-0.00204,-0.04749
0.05616,-0.04704,-0.03847,-0.00007,-0.00202,-0.04749
0.05616,-0.04704,-0.02902,-0.00008,-0.00203,-0.04751
0.05616,-0.04704,-0.01958,-0.00007,-0.00204,-0.04751
0.05616,-0.04704,-0.01013,-0.00006,-0.00205,-0.04750
0.05616,-0.04704,-0.00069,-0.00005,-0.00205,-0.04750
0.05616,-0.04704,0.00875,-0.00005,-0.00206,-0.04751
0.05616,-0.04704,0.01820,-0.00004,-0.00207,-0.04752
0.05616,-0.04704,0.02764,-0.00005,-0.00207,-0.04753
0.05616,-0.04704,0.03709,-0.00003,-0.00208,-0.04753
0.04671,-0.04704,0.04653,-0.00003,-0.00209,-0.04754
0.04671,-0.04704,0.03709,-0.00003,-0.00207,-0.04755
0.04671,-0.04704,0.02764,-0.00004,-0.00207,-0.04753
0.04671,-0.04704,0.01820,-0.00004,-0.00206,-0.04753
0.04671,-0.04704,0.00875,-0.00004,-0.00206,-0.04752
0.04671,-0.04704,-0.00069,-0.00005,-0.00205,-0.04751
0.04671,-0.04704,-0.01013,-0.00005,-0.00205,-0.04751
0.04671,-0.04704,-0.01958,-0.00007,-0.00204,-0.04751
0.04671,-0.04704,-0.02902,-0.00007,-0.00203,-0.04751
0.04671,-0.04704,-0.03847,-0.00007,-0.00202,-0.04751
0.04671,-0.04704,-0.04791,-0.00010,-0.00201,-0.04752
0.03727,-0.04704,-0.05736,-0.00009,-0.00200,-0.04753
0.03727,-0.04704,-0.04791,-0.00009,-0.00200,-0.04753
0.03727,-0.04704,-0.03847,-0.00008,-0.00202,-0.04753
0.03727,-0.04704,-0.02902,-0.00006,-0.00204,-0.04752
0.03727,-0.04704,-0.01958,-0.00006,-0.00204,-0.04752
0.03727,-0.04704,-0.01013,-0.00004,-0.00204,-0.04751
0.03727,-0.04704,-0.00069,-0.00005,-0.00205,-0.04752
0.03727,-0.04704,0.00875,-0.00005,-0.00206,-0.04752
0.03727,-0.04704,0.01820,-0.00005,-0.00207,-0.04753
0.03727,-0.04704,0.02764,-0.00004,-0.00207,-0.04753
0.03727,-0.04704,0.03709,-0.00005,-0.00207,-0.04754
0.03727,-0.04704,0.04653,-0.00004,-0.00206,-0.04755
0.03727,-0.04704,0.05598,-0.00005,-0.00208,-0.04756
0.02782,-0.04704,0.05598,-0.00004,-0.00205,-0.04756
0.02782,-0.04704,0.04653,-0.00004,-0.00206,-0.04755
0.02782,-0.04704,0.03709,-0.00003,-0.00207,-0.04755
0.02782,-0.04704,0.02764,-0.00004,-0.00207,-0.04754
0.02782,-0.04704,0.01820,-0.00004,-0.00206,-0.04753
0.02782,-0.04704,0.00875,-0.00004,-0.00206,-0.04753
0.02782,-0.04704,-0.00069,-0.00004,-0.00205,-0.04752
0.02782,-0.04704,-0.01013,-0.00005,-0.00205,-0.04752
0.02782,-0.04704,-0.01958,-0.00005,-0.00205,-0.04752
0.02782,-0.04704,-0.02902,-0.00006,-0.00204,-0.04752
0.02782,-0.04704,-0.03847,-0.00006,-0.00202,-0.04753
0.02782,-0.04704,-0.04791,-0.00006,-0.00201,-0.04753
0.02782,-0.04704,-0.05736,-0.00008,-0.00200,-0.04754
0.01838,-0.04704,-0.06680,-0.00010,-0.00198,-0.04755
0.01838,-0.04704,-0.05736,-0.00006,-0.00200,-0.04756
0.01838,-0.04704,-0.04791,-0.00007,-0.00201,-0.04755
0.01838,-0.04704,-0.03847,-0.00005,-0.00202,-0.04754
0.01838,-0.04704,-0.02902,-0.00005,-0.00204,-0.04753
0.01838,-0.04704,-0.01958,-0.00005,-0.00204,-0.04753
0.01838,-0.04704,-0.01013,-0.00004,-0.00205,-0.04753
0.01838,-0.04704,-0.00069,-0.00004,-0.00205,-0.04753
0.01838,-0.04704,0.00875,-0.00004,-0.00205,-0.04752
0.01838,-0.04704,0.01820,-0.00004,-0.00205,-0.04753
0.01838,-0.04704,0.02764,-0.00004,-0.00206,-0.04753
0.01838,-0.04704,0.03709,-0.00004,-0.00206,-0.04754
0.01838,-0.04704,0.04653,-0.00005,-0.00206,-0.04755
0.01838,-0.04704,0.05598,-0.00005,-0.00206,-0.04755
0.01838,-0.04704,0.06542,-0.00005,-0.00205,-0.04756
0.00893,-0.04704,0.06542,-0.00004,-0.00205,-0.04756
0.00893,-0.04704,0.05598,-0.00005,-0.00206,-0.04756
0.00893,-0.04704,0.04653,-0.00004,-0.00206,-0.04755
0.00893,-0.04704,0.03709,-0.00004,-0.00206,-0.04754
0.00893,-0.04704,0.02764,-0.00004,-0.00206,-0.04754
0.00893,-0.04704,0.01820,-0.00004,-0.00205,-0.04753
0.00893,-0.04704,0.00875,-0.00003,-0.00205,-0.04753
0.00893,-0.04704,-0.00069,-0.00003,-0.00206,-0.04752
0.00893,-0.04704,-0.01013,-0.00003,-0.00206,-0.04752
0.00893,-0.04704,-0.01958,-0.00004,-0.00204,-0.04753
0.00893,-0.04704,-0.02902,-0.00004,-0.00203,-0.04753
0.00893,-0.04704,-0.03847,-0.00004,-0.00203,-0.04753
0.00893,-0.04704,-0.04791,-0.00005,-0.00201,-0.04755
0.00893,-0.04704,-0.05736,-0.00004,-0.00200,-0.04755
0.00893,-0.04704,-0.06680,-0.00005,-0.00199,-0.04757
-0.00051,-0.04704,-0.06680,-0.00004,-0.00199,-0.04758
-0.00051,-0.04704,-0.05736,-0.00003,-0.00200,-0.04756
-0.00051,-0.04704,-0.04791,-0.00004,-0.00202,-0.04756
-0.00051,-0.04704,-0.03847,-0.00004,-0.00203,-0.04755
-0.00051,-0.04704,-0.02902,0.00000,0.00000,0.00000
-0.00051,-0.04704,-0.01958,-0.00004,-0.00205,-0.04753
-0.00051,-0.04704,-0.01013,-0.00004,-0.00205,-0.04752
-0.00051,-0.04704,-0.00069,-0.00003,-0.00204,-0.04752
-0.00051,-0.04704,0.00875,-0.00005,-0.00205,-0.04753
-0.00051,-0.04704,0.01820,-0.00004,-0.00206,-0.04753
-0.00051,-0.04704,0.02764,-0.00003,-0.00206,-0.04754
-0.00051,-0.04704,0.03709,-0.00004,-0.00205,-0.04754
-0.00051,-0.04704,0.04653,0.00000,0.00000,0.00000
-0.00051,-0.04704,0.05598,-0.00003,-0.00205,-0.04755
-0.00051,-0.04704,0.06542,-0.00005,-0.00205,-0.04756
-0.00995,-0.04704,0.06542,-0.00003,-0.00204,-0.04756
-0.00995,-0.04704,0.05598,-0.00004,-0.00205,-0.04755
-0.00995,-0.04704,0.04653,-0.00004,-0.00206,-0.04755
-0.00995,-0.04704,0.03709,-0.00003,-0.00206,-0.04754
-0.00995,-0.04704,0.02764,-0.00003,-0.00205,-0.04754
-0.00995,-0.04704,0.01820,-0.00002,-0.00206,-0.04753
-0.00995,-0.04704,0.00875,-0.00003,-0.00205,-0.04753
-0.00995,-0.04704,-0.00069,-0.00002,-0.00205,-0.04753
-0.00995,-0.04704,-0.01013,-0.00002,-0.00205,-0.04753
-0.00995,-0.04704,-0.01958,-0.00002,-0.00203,-0.04753
-0.00995,-0.04704,-0.02902,-0.00002,-0.00204,-0.04753
-0.00995,-0.04704,-0.03847,-0.00002,-0.00202,-0.04754
-0.00995,-0.04704,-0.04791,-0.00001,-0.00201,-0.04755
-0.00995,-0.04704,-0.05736,-0.00001,-0.00200,-0.04756
-0.00995,-0.04704,-0.06680,-0.00001,-0.00199,-0.04758
-0.01940,-0.04704,-0.06680,0.00001,-0.00199,-0.04758
-0.01940,-0.04704,-0.05736,0.00000,-0.00201,-0.04757
-0.01940,-0.04704,-0.04791,-0.00000,-0.00201,-0.04755
-0.01940,-0.04704,-0.03847,-0.00001,-0.00202,-0.04754
-0.01940,-0.04704,-0.02902,0.00000,-0.00203,-0.04753
-0.01940,-0.04704,-0.01958,0.00000,-0.00204,-0.04753
-0.01940,-0.04704,-0.01013,-0.00002,-0.00204,-0.04752
-0.01940,-0.04704,-0.00069,-0.00002,-0.00203,-0.04752
-0.01940,-0.04704,0.00875,-0.00003,-0.00205,-0.04752
-0.01940,-0.04704,0.01820,-0.00002,-0.00206,-0.04752
-0.01940,-0.04704,0.02764,-0.00002,-0.00205,-0.04753
-0.01940,-0.04704,0.03709,-0.00003,-0.00205,-0.04754
-0.01940,-0.04704,0.04653,0.00000,0.00000,0.00000
-0.01940,-0.04704,0.05598,-0.00004,-0.00204,-0.04755
-0.01940,-0.04704,0.06542,-0.00004,-0.00205,-0.04755
-0.02884,-0.04704,0.05598,-0.00004,-0.00205,-0.04755
-0.02884,-0.04704,0.04653,-0.00003,-0.00205,-0.04755
-0.02884,-0.04704,0.03709,-0.00003,-0.00205,-0.04754
-0.02884,-0.04704,0.02764,-0.00003,-0.00206,-0.04753
-0.02884,-0.04704,0.01820,-0.00001,-0.00205,-0.04753
-0.02884,-0.04704,0.00875,-0.00002,-0.00205,-0.04752
-0.02884,-0.04704,-0.00069,-0.00001,-0.00204,-0.04752
-0.02884,-0.04704,-0.01013,-0.00000,-0.00204,-0.04752
-0.02884,-0.04704,-0.01958,0.00001,-0.00204,-0.04752
-0.02884,-0.04704,-0.02902,0.00000,-0.00203,-0.04752
-0.02884,-0.04704,-0.03847,0.00001,-0.00202,-0.04753
-0.02884,-0.04704,-0.04791,0.00002,-0.00201,-0.04754
-0.02884,-0.04704,-0.05736,0.00003,-0.00200,-0.04756
-0.03829,-0.04704,-0.05736,0.00005,-0.00200,-0.04756
-0.03829,-0.04704,-0.04791,0.00003,-0.00201,-0.04755
-0.03829,-0.04704,-0.03847,0.00003,-0.00201,-0.04753
-0.03829,-0.04704,-0.02902,0.00001,-0.00202,-0.04752
-0.03829,-0.04704,-0.01958,0.00001,-0.00203,-0.04752
-0.03829,-0.04704,-0.01013,0.00000,-0.00204,-0.04751
-0.03829,-0.04704,-0.00069,-0.00000,-0.00205,-0.04752
-0.03829,-0.04704,0.00875,0.00000,0.00000,0.00000
-0.03829,-0.04704,0.01820,-0.00002,-0.00204,-0.04752
-0.03829,-0.04704,0.02764,-0.00003,-0.00205,-0.04752
-0.03829,-0.04704,0.03709,-0.00004,-0.00205,-0.04753
-0.03829,-0.04704,0.04653,-0.00004,-0.00204,-0.04754
-0.03829,-0.04704,0.05598,-0.00004,-0.00205,-0.04755
-0.04773,-0.04704,0.04653,-0.00004,-0.00204,-0.04754
-0.04773,-0.04704,0.03709,-0.00002,-0.00205,-0.04753
-0.04773,-0.04704,0.02764,-0.00002,-0.00204,-0.04752
-0.04773,-0.04704,0.01820,-0.00001,-0.00204,-0.04751
-0.04773,-0.04704,0.00875,0.00000,-0.00205,-0.04751
-0.04773,-0.04704,-0.00069,-0.00000,-0.00203,-0.04751
-0.04773,-0.04704,-0.01013,0.00001,-0.00204,-0.04751
-0.04773,-0.04704,-0.01958,0.00002,-0.00203,-0.04750
-0.04773,-0.04704,-0.02902,0.00004,-0.00202,-0.04751
-0.04773,-0.04704,-0.03847,0.00004,-0.00201,-0.04752
-0.04773,-0.04704,-0.04791,0.00005,-0.00201,-0.04753
-0.05718,-0.04704,-0.03847,0.00003,-0.00202,-0.04753
-0.05718,-0.04704,-0.02902,0.00004,-0.00202,-0.04750
-0.05718,-0.04704,-0.01958,0.00002,-0.00202,-0.04750
-0.05718,-0.04704,-0.01013,0.00002,-0.00203,-0.04750
-0.05718,-0.04704,-0.00069,0.00000,-0.00202,-0.04749
-0.05718,-0.04704,0.00875,0.00000,-0.00203,-0.04750
-0.05718,-0.04704,0.01820,-0.00002,-0.00204,-0.04750
-0.05718,-0.04704,0.02764,-0.00003,-0.00204,-0.04750
-0.05718,-0.04704,0.03709,-0.00003,-0.00204,-0.04751
-0.06662,-0.04704,0.01820,-0.00002,-0.00205,-0.04751
-0.06662,-0.04704,0.00875,0.00000,-0.00203,-0.04748
-0.06662,-0.04704,-0.00069,0.00001,-0.00203,-0.04748
-0.06662,-0.04704,-0.01013,0.00003,-0.00202,-0.04749
-0.06662,-0.04704,-0.01958,0.00004,-0.00202,-0.04749
-0.07607,-0.03760,-0.00069,0.00001,-0.00203,-0.04748
-0.06662,-0.03760,-0.02902,0.00002,-0.00203,-0.04748
-0.06662,-0.03760,-0.01958,0.00004,-0.00202,-0.04749
-0.06662,-0.03760,-0.01013,0.00001,-0.00203,-0.04749
-0.06662,-0.03760,-0.00069,-0.00000,-0.00203,-0.04749
-0.06662,-0.03760,0.00875,-0.00002,-0.00203,-0.04749
-0.06662,-0.03760,0.01820,-0.00001,-0.00203,-0.04750
-0.06662,-0.03760,0.02764,-0.00003,-0.00205,-0.04750
-0.06662,-0.03760,0.03709,-0.00004,-0.00203,-0.04751
-0.05718,-0.03760,0.04653,-0.00003,-0.00203,-0.04752
-0.05718,-0.03760,0.03709,-0.00004,-0.00204,-0.04752
-0.05718,-0.03760,0.02764,-0.00002,-0.00204,-0.04751
-0.05718,-0.03760,0.01820,-0.00001,-0.00204,-0.04751
-0.05718,-0.03760,0.00875,-0.00001,-0.00202,-0.04750
-0.05718,-0.03760,-0.00069,0.00000,-0.00203,-0.04750
-0.05718,-0.03760,-0.01013,0.00001,-0.00204,-0.04750
-0.05718,-0.03760,-0.01958,0.00001,-0.00202,-0.04751
-0.05718,-0.03760,-0.02902,0.00003,-0.00202,-0.04751
-0.05718,-0.03760,-0.03847,0.00005,-0.00202,-0.04752
-0.05718,-0.03760,-0.04791,0.00005,-0.00202,-0.04752
-0.04773,-0.03760,-0.05736,0.00008,-0.00200,-0.04754
-0.04773,-0.03760,-0.04791,0.00005,-0.00201,-0.04755
-0.04773,-0.03760,-0.03847,0.00003,-0.00202,-0.04753
-0.04773,-0.03760,-0.02902,0.00003,-0.00202,-0.04752
-0.04773,-0.03760,-0.01958,0.00001,-0.00203,-0.04751
-0.04773,-0.03760,-0.01013,0.00001,-0.00204,-0.04751
-0.04773,-0.03760,-0.00069,-0.00001,-0.00203,-0.04751
-0.04773,-0.03760,0.00875,-0.00002,-0.00203,-0.04751
-0.04773,-0.03760,0.01820,-0.00002,-0.00203,-0.04751
-0.04773,-0.03760,0.02764,-0.00003,-0.00204,-0.04752
-0.04773,-0.03760,0.03709,-0.00004,-0.00204,-0.04752
-0.04773,-0.03760,0.04653,-0.00004,-0.00204,-0.04753
-0.04773,-0.03760,0.05598,-0.00005,-0.00204,-0.04754
-0.03829,-0.03760,0.06542,-0.00006,-0.00204,-0.04756
-0.03829,-0.03760,0.05598,-0.00004,-0.00204,-0.04755
-0.03829,-0.03760,0.04653,-0.00004,-0.00204,-0.04754
-0.03829,-0.03760,0.03709,-0.00004,-0.00204,-0.04753
-0.03829,-0.03760,0.02764,-0.00002,-0.00203,-0.04753
-0.03829,-0.03760,0.01820,-0.00002,-0.00205,-0.04752
-0.03829,-0.03760,0.00875,-0.00002,-0.00205,-0.04752
-0.03829,-0.03760,-0.00069,-0.00002,-0.00205,-0.04752
-0.03829,-0.03760,-0.01013,0.00000,-0.00204,-0.04752
-0.03829,-0.03760,-0.01958,0.00002,-0.00203,-0.04752
-0.03829,-0.03760,-0.02902,0.00001,-0.00203,-0.04753
-0.03829,-0.03760,-0.03847,0.00003,-0.00202,-0.04754
-0.03829,-0.03760,-0.04791,0.00003,-0.00201,-0.04755
-0.03829,-0.03760,-0.05736,0.00004,-0.00200,-0.04756
-0.03829,-0.03760,-0.06680,0.00004,-0.00201,-0.04758
-0.02884,-0.03760,-0.06680,0.00003,-0.00200,-0.04760
-0.02884,-0.03760,-0.05736,0.00002,-0.00201,-0.04759
-0.02884,-0.03760,-0.04791,0.00001,-0.00202,-0.04757
-0.02884,-0.03760,-0.03847,0.00000,-0.00202,-0.04755
-0.02884,-0.03760,-0.02902,0.00000,-0.00203,-0.04754
-0.02884,-0.03760,-0.01958,-0.00001,-0.00203,-0.04753
-0.02884,-0.03760,-0.01013,-0.00001,-0.00204,-0.04752
-0.02884,-0.03760,-0.00069,-0.00002,-0.00205,-0.04752
-0.02884,-0.03760,0.00875,-0.00002,-0.00204,-0.04752
-0.02884,-0.03760,0.01820,-0.00004,-0.00204,-0.04752
-0.02884,-0.03760,0.02764,-0.00004,-0.00204,-0.04753
-0.02884,-0.03760,0.03709,-0.00003,-0.00204,-0.04753
-0.02884,-0.03760,0.04653,-0.00004,-0.00204,-0.04754
-0.02884,-0.03760,0.05598,-0.00004,-0.00203,-0.04754
-0.02884,-0.03760,0.06542,-0.00003,-0.00204,-0.04755
-0.01940,-0.03760,0.06542,-0.00004,-0.00205,-0.04756
-0.01940,-0.03760,0.05598,-0.00004,-0.00204,-0.04755
-0.01940,-0.03760,0.04653,-0.00005,-0.00205,-0.04755
-0.01940,-0.03760,0.03709,0.00000,0.00000,0.00000
-0.01940,-0.03760,0.02764,-0.00004,-0.00204,-0.04753
-0.01940,-0.03760,0.01820,-0.00002,-0.00205,-0.04753
-0.01940,-0.03760,0.00875,-0.00004,-0.00204,-0.04753
-0.01940,-0.03760,-0.00069,-0.00002,-0.00204,-0.04753
-0.01940,-0.03760,-0.01013,-0.00002,-0.00204,-0.04753
-0.01940,-0.03760,-0.01958,-0.00001,-0.00204,-0.04753
-0.01940,-0.03760,-0.02902,-0.00001,-0.00204,-0.04753
-0.01940,-0.03760,-0.03847,-0.00001,-0.00202,-0.04755
-0.01940,-0.03760,-0.04791,-0.00001,-0.00202,-0.04756
-0.01940,-0.03760,-0.05736,0.00000,-0.00200,-0.04757
-0.01940,-0.03760,-0.06680,0.00000,-0.00199,-0.04759
-0.00995,-0.03760,-0.06680,-0.00001,-0.00199,-0.04760
-0.00995,-0.03760,-0.05736,-0.00003,-0.00200,-0.04759
-0.00995,-0.03760,-0.04791,-0.00002,-0.00201,-0.04757
-0.00995,-0.03760,-0.03847,-0.00002,-0.00203,-0.04756
-0.00995,-0.03760,-0.02902,-0.00003,-0.00202,-0.04755
-0.00995,-0.03760,-0.01958,-0.00003,-0.00204,-0.04754
-0.00995,-0.03760,-0.01013,-0.00003,-0.00205,-0.04753
-0.00995,-0.03760,-0.00069,-0.00004,-0.00204,-0.04753
-0.00995,-0.03760,0.00875,-0.00003,-0.00205,-0.04753
-0.00995,-0.03760,0.01820,-0.00003,-0.00205,-0.04753
-0.00995,-0.03760,0.02764,-0.00004,-0.00205,-0.04754
-0.00995,-0.03760,0.03709,-0.00004,-0.00206,-0.04754
-0.00995,-0.03760,0.04653,-0.00004,-0.00204,-0.04754
-0.00995,-0.03760,0.05598,-0.00004,-0.00204,-0.04755
-0.00995,-0.03760,0.06542,-0.00005,-0.00204,-0.04755
-0.00995,-0.03760,0.07487,-0.00005,-0.00205,-0.04756
-0.00051,-0.03760,0.07487,-0.00004,-0.00205,-0.04756
-0.00051,-0.03760,0.06542,-0.00005,-0.00204,-0.04756
-0.00051,-0.03760,0.05598,-0.00005,-0.00205,-0.04755
-0.00051,-0.03760,0.04653,-0.00004,-0.00204,-0.04755
-0.00051,-0.03760,0.03709,-0.00005,-0.00205,-0.04755
-0.00051,-0.03760,0.02764,-0.00004,-0.00205,-0.04754
-0.00051,-0.03760,0.01820,-0.00004,-0.00205,-0.04753
-0.00051,-0.03760,0.00875,-0.00004,-0.00205,-0.04753
-0.00051,-0.03760,-0.00069,-0.00003,-0.00205,-0.04753
-0.00051,-0.03760,-0.01013,-0.00004,-0.00204,-0.04753
-0.00051,-0.03760,-0.01958,-0.00004,-0.00205,-0.04753
-0.00051,-0.03760,-0.02902,-0.00002,-0.00203,-0.04754
-0.00051,-0.03760,-0.03847,-0.00003,-0.00203,-0.04755
-0.00051,-0.03760,-0.04791,-0.00003,-0.00201,-0.04756
-0.00051,-0.03760,-0.05736,-0.00004,-0.00201,-0.04757
-0.00051,-0.03760,-0.06680,-0.00004,-0.00200,-0.04759
-0.00051,-0.03760,-0.07625,-0.00005,-0.00198,-0.04761
0.00893,-0.03760,-0.06680,-0.00003,-0.00200,-0.04760
0.00893,-0.03760,-0.05736,-0.00005,-0.00200,-0.04758
0.00893,-0.03760,-0.04791,-0.00005,-0.00201,-0.04756
0.00893,-0.03760,-0.03847,-0.00005,-0.00203,-0.04756
0.00893,-0.03760,-0.02902,-0.00005,-0.00203,-0.04754
0.00893,-0.03760,-0.01958,-0.00004,-0.00203,-0.04753
0.00893,-0.03760,-0.01013,-0.00004,-0.00205,-0.04753
0.00893,-0.03760,-0.00069,-0.00004,-0.00204,-0.04753
0.00893,-0.03760,0.00875,-0.00004,-0.00205,-0.04753
0.00893,-0.03760,0.01820,-0.00005,-0.00205,-0.04754
0.00893,-0.03760,0.02764,-0.00005,-0.00204,-0.04754
0.00893,-0.03760,0.03709,-0.00005,-0.00205,-0.04754
0.00893,-0.03760,0.04653,-0.00005,-0.00206,-0.04754
0.00893,-0.03760,0.05598,-0.00006,-0.00205,-0.04755
0.00893,-0.03760,0.06542,-0.00005,-0.00205,-0.04755
0.00893,-0.03760,0.07487,-0.00006,-0.00206,-0.04755
0.01838,-0.03760,0.06542,-0.00005,-0.00205,-0.04756
0.01838,-0.03760,0.05598,-0.00005,-0.00206,-0.04756
0.01838,-0.03760,0.04653,0.00000,0.00000,0.00000
0.01838,-0.03760,0.03709,-0.00005,-0.00205,-0.04755
0.01838,-0.03760,0.02764,-0.00005,-0.00206,-0.04754
0.01838,-0.03760,0.01820,-0.00004,-0.00205,-0.04754
0.01838,-0.03760,0.00875,-0.00004,-0.00205,-0.04753
0.01838,-0.03760,-0.00069,-0.00005,-0.00205,-0.04754
0.01838,-0.03760,-0.01013,-0.00006,-0.00204,-0.04754
0.01838,-0.03760,-0.01958,-0.00005,-0.00204,-0.04754
0.01838,-0.03760,-0.02902,0.00000,0.00000,0.00000
0.01838,-0.03760,-0.03847,-0.00007,-0.00203,-0.04754
0.01838,-0.03760,-0.04791,-0.00006,-0.00202,-0.04755
0.01838,-0.03760,-0.05736,-0.00008,-0.00200,-0.04756
0.01838,-0.03760,-0.06680,-0.00007,-0.00200,-0.04758
0.02782,-0.03760,-0.06680,-0.00010,-0.00199,-0.04758
0.02782,-0.03760,-0.05736,-0.00009,-0.00200,-0.04757
0.02782,-0.03760,-0.04791,-0.00009,-0.00201,-0.04755
0.02782,-0.03760,-0.03847,-0.00007,-0.00203,-0.04754
0.02782,-0.03760,-0.02902,-0.00007,-0.00203,-0.04754
0.02782,-0.03760,-0.01958,-0.00007,-0.00204,-0.04753
0.02782,-0.03760,-0.01013,-0.00006,-0.00204,-0.04752
0.02782,-0.03760,-0.00069,-0.00006,-0.00205,-0.04753
0.02782,-0.03760,0.00875,-0.00005,-0.00204,-0.04753
0.02782,-0.03760,0.01820,-0.00005,-0.00206,-0.04753
0.02782,-0.03760,0.02764,-0.00005,-0.00205,-0.04754
0.02782,-0.03760,0.03709,-0.00005,-0.00206,-0.04755
0.02782,-0.03760,0.04653,-0.00005,-0.00206,-0.04755
0.02782,-0.03760,0.05598,-0.00005,-0.00206,-0.04756
0.02782,-0.03760,0.06542,-0.00008,-0.00207,-0.04756
0.03727,-0.03760,0.06542,-0.00007,-0.00206,-0.04757
0.03727,-0.03760,0.05598,-0.00006,-0.00207,-0.04756
0.03727,-0.03760,0.04653,-0.00005,-0.00206,-0.04756
0.03727,-0.03760,0.03709,-0.00005,-0.00207,-0.04755
0.03727,-0.03760,0.02764,-0.00004,-0.00205,-0.04755
0.03727,-0.03760,0.01820,-0.00005,-0.00206,-0.04753
0.03727,-0.03760,0.00875,-0.00005,-0.00205,-0.04753
0.03727,-0.03760,-0.00069,-0.00006,-0.00205,-0.04753
0.03727,-0.03760,-0.01013,-0.00006,-0.00204,-0.04753
0.03727,-0.03760,-0.01958,-0.00007,-0.00204,-0.04752
0.03727,-0.03760,-0.02902,-0.00007,-0.00204,-0.04752
0.03727,-0.03760,-0.03847,-0.00007,-0.00202,-0.04753
0.03727,-0.03760,-0.04791,-0.00008,-0.00202,-0.04754
0.03727,-0.03760,-0.05736,-0.00009,-0.00201,-0.04755
0.03727,-0.03760,-0.06680,-0.00010,-0.00199,-0.04756
0.04671,-0.03760,-0.05736,-0.00008,-0.00200,-0.04755
0.04671,-0.03760,-0.04791,-0.00009,-0.00202,-0.04754
0.04671,-0.03760,-0.03847,-0.00008,-0.00202,-0.04753
0.04671,-0.03760,-0.02902,-0.00007,-0.00203,-0.04752
0.04671,-0.03760,-0.01958,-0.00007,-0.00204,-0.04752
0.04671,-0.03760,-0.01013,-0.00006,-0.00205,-0.04752
0.04671,-0.03760,-0.00069,-0.00006,-0.00205,-0.04752
0.04671,-0.03760,0.00875,-0.00006,-0.00205,-0.04752
0.04671,-0.03760,0.01820,-0.00005,-0.00206,-0.04752
0.04671,-0.03760,0.02764,-0.00005,-0.00207,-0.04753
0.04671,-0.03760,0.03709,-0.00005,-0.00206,-0.04754
0.04671,-0.03760,0.04653,-0.00005,-0.00207,-0.04755
0.04671,-0.03760,0.05598,-0.00006,-0.00208,-0.04756
0.05616,-0.03760,0.04653,-0.00006,-0.00207,-0.04756
0.05616,-0.03760,0.03709,-0.00004,-0.00206,-0.04755
0.05616,-0.03760,0.02764,-0.00005,-0.00207,-0.04754
0.05616,-0.03760,0.01820,-0.00005,-0.00206,-0.04753
0.05616,-0.03760,0.00875,-0.00005,-0.00206,-0.04752
0.05616,-0.03760,-0.00069,-0.00006,-0.00205,-0.04752
0.05616,-0.03760,-0.01013,-0.00007,-0.00205,-0.04751
0.05616,-0.03760,-0.01958,-0.00007,-0.00204,-0.04751
0.05616,-0.03760,-0.02902,-0.00007,-0.00203,-0.04751
0.05616,-0.03760,-0.03847,-0.00009,-0.00202,-0.04752
0.05616,-0.03760,-0.04791,-0.00010,-0.00202,-0.04752
0.06560,-0.03760,-0.02902,-0.00009,-0.00202,-0.04752
0.06560,-0.03760,-0.01958,-0.00007,-0.00204,-0.04750
0.06560,-0.03760,-0.01013,-0.00006,-0.00204,-0.04750
0.06560,-0.03760,-0.00069,-0.00006,-0.00205,-0.04751
0.06560,-0.03760,0.00875,-0.00006,-0.00206,-0.04752
0.06560,-0.03760,0.01820,-0.00005,-0.00207,-0.04752
0.06560,-0.03760,0.02764,-0.00005,-0.00207,-0.04753
0.06560,-0.03760,0.03709,-0.00004,-0.00208,-0.04753
0.07505,-0.03760,0.00875,-0.00005,-0.00206,-0.04753
0.07505,-0.03760,-0.00069,-0.00006,-0.00206,-0.04751
0.07505,-0.03760,-0.01013,-0.00007,-0.00205,-0.04750
0.07505,-0.02815,-0.01958,-0.00008,-0.00204,-0.04750
0.07505,-0.02815,-0.01013,-0.00008,-0.00205,-0.04751
0.07505,-0.02815,-0.00069,-0.00007,-0.00206,-0.04751
0.07505,-0.02815,0.00875,-0.00005,-0.00205,-0.04752
0.07505,-0.02815,0.01820,-0.00006,-0.00205,-0.04752
0.06560,-0.02815,0.03709,-0.00006,-0.00207,-0.04753
0.06560,-0.02815,0.02764,-0.00005,-0.00206,-0.04754
0.06560,-0.02815,0.01820,-0.00005,-0.00207,-0.04753
0.06560,-0.02815,0.00875,-0.00007,-0.00206,-0.04752
0.06560,-0.02815,-0.00069,-0.00006,-0.00205,-0.04752
0.06560,-0.02815,-0.01013,-0.00007,-0.00205,-0.04751
0.06560,-0.02815,-0.01958,-0.00008,-0.00205,-0.04752
0.06560,-0.02815,-0.02902,-0.00008,-0.00203,-0.04751
0.06560,-0.02815,-0.03847,-0.00009,-0.00203,-0.04752
0.05616,-0.02815,-0.05736,-0.00011,-0.00200,-0.04753
0.05616,-0.02815,-0.04791,-0.00011,-0.00202,-0.04754
0.05616,-0.02815,-0.03847,-0.00010,-0.00202,-0.04753
0.05616,-0.02815,-0.02902,-0.00009,-0.00204,-0.04752
0.05616,-0.02815,-0.01958,-0.00009,-0.00203,-0.04752
0.05616,-0.02815,-0.01013,-0.00008,-0.00204,-0.04752
0.05616,-0.02815,-0.00069,-0.00006,-0.00205,-0.04752
0.05616,-0.02815,0.00875,-0.00007,-0.00204,-0.04752
0.05616,-0.02815,0.01820,-0.00006,-0.00206,-0.04753
0.05616,-0.02815,0.02764,-0.00006,-0.00206,-0.04753
0.05616,-0.02815,0.03709,-0.00006,-0.00207,-0.04754
0.05616,-0.02815,0.04653,-0.00006,-0.00206,-0.04755
0.05616,-0.02815,0.05598,-0.00005,-0.00207,-0.04756
0.04671,-0.02815,0.05598,-0.00004,-0.00206,-0.04756
0.04671,-0.02815,0.04653,-0.00005,-0.00207,-0.04756
0.04671,-0.02815,0.03709,-0.00006,-0.00207,-0.04755
0.04671,-0.02815,0.02764,-0.00006,-0.00205,-0.04754
0.04671,-0.02815,0.01820,-0.00006,-0.00206,-0.04754
0.04671,-0.02815,0.00875,-0.00005,-0.00205,-0.04753
0.04671,-0.02815,-0.00069,-0.00006,-0.00205,-0.04753
0.04671,-0.02815,-0.01013,-0.00007,-0.00205,-0.04752
0.04671,-0.02815,-0.01958,-0.00007,-0.00204,-0.04753
0.04671,-0.02815,-0.02902,-0.00007,-0.00203,-0.04753
0.04671,-0.02815,-0.03847,-0.00007,-0.00203,-0.04753
0.04671,-0.02815,-0.04791,-0.00010,-0.00202,-0.04754
0.04671,-0.02815,-0.05736,-0.00011,-0.00200,-0.04755
0.03727,-0.02815,-0.06680,-0.00012,-0.00200,-0.04757
0.03727,-0.02815,-0.05736,-0.00011,-0.00200,-0.04758
0.03727,-0.02815,-0.04791,-0.00009,-0.00201,-0.04756
0.03727,-0.02815,-0.03847,-0.00009,-0.00202,-0.04755
0.03727,-0.02815,-0.02902,-0.00007,-0.00203,-0.04754
0.03727,-0.02815,-0.01958,-0.00007,-0.00203,-0.04754
0.03727,-0.02815,-0.01013,-0.00007,-0.00204,-0.04754
0.03727,-0.02815,-0.00069,-0.00006,-0.00205,-0.04753
0.03727,-0.02815,0.00875,-0.00006,-0.00206,-0.04753
0.03727,-0.02815,0.01820,-0.00007,-0.00205,-0.04754
0.03727,-0.02815,0.02764,-0.00006,-0.00205,-0.04754
0.03727,-0.02815,0.03709,-0.00006,-0.00206,-0.04755
0.03727,-0.02815,0.04653,-0.00006,-0.00205,-0.04755
0.03727,-0.02815,0.05598,-0.00006,-0.00205,-0.04756
0.03727,-0.02815,0.06542,-0.00006,-0.00206,-0.04757
0.02782,-0.02815,0.06542,-0.00006,-0.00205,-0.04756
0.02782,-0.02815,0.05598,-0.00006,-0.00206,-0.04756
0.02782,-0.02815,0.04653,-0.00006,-0.00206,-0.04756
0.02782,-0.02815,0.03709,-0.00005,-0.00205,-0.04755
0.02782,-0.02815,0.02764,-0.00005,-0.00206,-0.04754
0.02782,-0.02815,0.01820,-0.00006,-0.00206,-0.04754
0.02782,-0.02815,0.00875,-0.00006,-0.00205,-0.04754
0.02782,-0.02815,-0.00069,-0.00005,-0.00205,-0.04753
0.02782,-0.02815,-0.01013,-0.00006,-0.00204,-0.04754
0.02782,-0.02815,-0.01958,-0.00006,-0.00204,-0.04754
0.02782,-0.02815,-0.02902,-0.00006,-0.00204,-0.04754
0.02782,-0.02815,-0.03847,-0.00007,-0.00203,-0.04755
0.02782,-0.02815,-0.04791,-0.00008,-0.00202,-0.04756
0.02782,-0.02815,-0.05736,-0.00008,-0.00200,-0.04757
0.02782,-0.02815,-0.06680,-0.00010,-0.00200,-0.04758
0.01838,-0.02815,-0.07625,-0.00010,-0.00199,-0.04761
0.01838,-0.02815,-0.06680,-0.00007,-0.00199,-0.04761
0.01838,-0.02815,-0.05736,-0.00008,-0.00201,-0.04759
0.01838,-0.02815,-0.04791,-0.00006,-0.00202,-0.04757
0.01838,-0.02815,-0.03847,-0.00007,-0.00202,-0.04756
0.01838,-0.02815,-0.02902,-0.00006,-0.00204,-0.04755
0.01838,-0.02815,-0.01958,-0.00005,-0.00203,-0.04754
0.01838,-0.02815,-0.01013,-0.00007,-0.00203,-0.04754
0.01838,-0.02815,-0.00069,-0.00005,-0.00204,-0.04754
0.01838,-0.02815,0.00875,-0.00005,-0.00204,-0.04754
0.01838,-0.02815,0.01820,-0.00006,-0.00205,-0.04753
0.01838,-0.02815,0.02764,-0.00005,-0.00204,-0.04754
0.01838,-0.02815,0.03709,-0.00005,-0.00205,-0.04755
0.01838,-0.02815,0.04653,-0.00006,-0.00205,-0.04755
0.01838,-0.02815,0.05598,-0.00006,-0.00204,-0.04756
0.01838,-0.02815,0.06542,-0.00006,-0.00205,-0.04756
0.01838,-0.02815,0.07487,-0.00006,-0.00205,-0.04756
0.00893,-0.02815,0.07487,-0.00006,-0.00203,-0.04756
0.00893,-0.02815,0.06542,-0.00006,-0.00204,-0.04756
0.00893,-0.02815,0.05598,-0.00005,-0.00204,-0.04755
0.00893,-0.02815,0.04653,-0.00006,-0.00205,-0.04755
0.00893,-0.02815,0.03709,-0.00005,-0.00204,-0.04755
0.00893,-0.02815,0.02764,-0.00005,-0.00205,-0.04754
0.00893,-0.02815,0.01820,-0.00005,-0.00204,-0.04754
0.00893,-0.02815,0.00875,-0.00004,-0.00204,-0.04754
0.00893,-0.02815,-0.00069,-0.00005,-0.00205,-0.04753
0.00893,-0.02815,-0.01013,-0.00005,-0.00204,-0.04753
0.00893,-0.02815,-0.01958,-0.00004,-0.00204,-0.04755
0.00893,-0.02815,-0.02902,-0.00005,-0.00203,-0.04755
0.00893,-0.02815,-0.03847,-0.00005,-0.00202,-0.04756
0.00893,-0.02815,-0.04791,-0.00006,-0.00202,-0.04757
0.00893,-0.02815,-0.05736,-0.00004,-0.00201,-0.04758
0.00893,-0.02815,-0.06680,-0.00005,-0.00201,-0.04759
0.00893,-0.02815,-0.07625,-0.00006,-0.00200,-0.04762
-0.00051,-0.02815,-0.07625,-0.00005,-0.00199,-0.04763
-0.00051,-0.02815,-0.06680,-0.00005,-0.00201,-0.04762
-0.00051,-0.02815,-0.05736,-0.00005,-0.00200,-0.04759
-0.00051,-0.02815,-0.04791,-0.00004,-0.00201,-0.04758
-0.00051,-0.02815,-0.03847,-0.00004,-0.00202,-0.04757
-0.00051,-0.02815,-0.02902,-0.00004,-0.00203,-0.04756
-0.00051,-0.02815,-0.01958,-0.00004,-0.00204,-0.04755
-0.00051,-0.02815,-0.01013,-0.00005,-0.00203,-0.04754
-0.00051,-0.02815,-0.00069,-0.00004,-0.00204,-0.04754
-0.00051,-0.02815,0.00875,-0.00005,-0.00203,-0.04754
-0.00051,-0.02815,0.01820,-0.00004,-0.00204,-0.04754
-0.00051,-0.02815,0.02764,-0.00005,-0.00205,-0.04754
-0.00051,-0.02815,0.03709,-0.00006,-0.00204,-0.04754
-0.00051,-0.02815,0.04653,-0.00004,-0.00204,-0.04755
-0.00051,-0.02815,0.05598,-0.00005,-0.00205,-0.04755
-0.00051,-0.02815,0.06542,-0.00008,-0.00205,-0.04756
-0.00051,-0.02815,0.07487,-0.00007,-0.00204,-0.04756
-0.00995,-0.02815,0.07487,-0.00004,-0.00204,-0.04755
-0.00995,-0.02815,0.06542,-0.00006,-0.00204,-0.04756
-0.00995,-0.02815,0.05598,-0.00005,-0.00204,-0.04755
-0.00995,-0.02815,0.04653,-0.00006,-0.00205,-0.04755
-0.00995,-0.02815,0.03709,-0.00004,-0.00204,-0.04754
-0.00995,-0.02815,0.02764,-0.00004,-0.00205,-0.04754
-0.00995,-0.02815,0.01820,-0.00004,-0.00204,-0.04754
-0.00995,-0.02815,0.00875,-0.00004,-0.00205,-0.04753
-0.00995,-0.02815,-0.00069,-0.00003,-0.00204,-0.04753
-0.00995,-0.02815,-0.01013,-0.00003,-0.00204,-0.04754
-0.00995,-0.02815,-0.01958,-0.00003,-0.00203,-0.04754
-0.00995,-0.02815,-0.02902,-0.00003,-0.00203,-0.04755
-0.00995,-0.02815,-0.03847,-0.00003,-0.00203,-0.04756
-0.00995,-0.02815,-0.04791,-0.00003,-0.00202,-0.04757
-0.00995,-0.02815,-0.05736,-0.00002,-0.00201,-0.04758
-0.00995,-0.02815,-0.06680,-0.00003,-0.00200,-0.04760
-0.00995,-0.02815,-0.07625,-0.00002,-0.00200,-0.04763
-0.01940,-0.02815,-0.07625,-0.00001,-0.00199,-0.04764
-0.01940,-0.02815,-0.06680,-0.00001,-0.00200,-0.04762
-0.01940,-0.02815,-0.05736,-0.00001,-0.00202,-0.04759
-0.01940,-0.02815,-0.04791,-0.00001,-0.00202,-0.04758
-0.01940,-0.02815,-0.03847,-0.00001,-0.00202,-0.04756
-0.01940,-0.02815,-0.02902,-0.00001,-0.00204,-0.04755
-0.01940,-0.02815,-0.01958,-0.00002,-0.00203,-0.04754
-0.01940,-0.02815,-0.01013,-0.00003,-0.00204,-0.04754
-0.01940,-0.02815,-0.00069,-0.00003,-0.00204,-0.04754
-0.01940,-0.02815,0.00875,-0.00004,-0.00204,-0.04753
-0.01940,-0.02815,0.01820,-0.00004,-0.00204,-0.04753
-0.01940,-0.02815,0.02764,-0.00005,-0.00204,-0.04753
-0.01940,-0.02815,0.03709,-0.00005,-0.00204,-0.04753
-0.01940,-0.02815,0.04653,-0.00006,-0.00203,-0.04754
-0.01940,-0.02815,0.05598,-0.00006,-0.00204,-0.04755
-0.01940,-0.02815,0.06542,-0.00006,-0.00203,-0.04755
-0.01940,-0.02815,0.07487,-0.00005,-0.00204,-0.04756
-0.02884,-0.02815,0.06542,-0.00004,-0.00203,-0.04755
-0.02884,-0.02815,0.05598,-0.00005,-0.00204,-0.04755
-0.02884,-0.02815,0.04653,-0.00004,-0.00204,-0.04754
-0.02884,-0.02815,0.03709,-0.00005,-0.00204,-0.04754
-0.02884,-0.02815,0.02764,-0.00005,-0.00204,-0.04753
-0.02884,-0.02815,0.01820,-0.00002,-0.00203,-0.04753
-0.02884,-0.02815,0.00875,-0.00002,-0.00204,-0.04752
-0.02884,-0.02815,-0.00069,-0.00002,-0.00205,-0.04753
-0.02884,-0.02815,-0.01013,-0.00002,-0.00203,-0.04753
-0.02884,-0.02815,-0.01958,-0.00001,-0.00203,-0.04753
-0.02884,-0.02815,-0.02902,-0.00001,-0.00202,-0.04754
-0.02884,-0.02815,-0.03847,0.00000,-0.00203,-0.04755
-0.02884,-0.02815,-0.04791,0.00000,-0.00201,-0.04756
-0.02884,-0.02815,-0.05736,0.00002,-0.00200,-0.04758
-0.02884,-0.02815,-0.06680,0.00003,-0.00199,-0.04760
-0.03829,-0.02815,-0.06680,0.00005,-0.00200,-0.04760
-0.03829,-0.02815,-0.05736,0.00003,-0.00201,-0.04758
-0.03829,-0.02815,-0.04791,0.00002,-0.00201,-0.04756
-0.03829,-0.02815,-0.03847,0.00001,-0.00202,-0.04755
-0.03829,-0.02815,-0.02902,0.00000,-0.00202,-0.04754
-0.03829,-0.02815,-0.01958,-0.00000,-0.00203,-0.04753
-0.03829,-0.02815,-0.01013,-0.00002,-0.00203,-0.04753
-0.03829,-0.02815,-0.00069,-0.00002,-0.00203,-0.04752
-0.03829,-0.02815,0.00875,-0.00002,-0.00203,-0.04752
-0.03829,-0.02815,0.01820,-0.00003,-0.00204,-0.04752
-0.03829,-0.02815,0.02764,-0.00003,-0.00203,-0.04752
-0.03829,-0.02815,0.03709,-0.00004,-0.00204,-0.04753
-0.03829,-0.02815,0.04653,-0.00004,-0.00203,-0.04754
-0.03829,-0.02815,0.05598,-0.00006,-0.00204,-0.04754
-0.03829,-0.02815,0.06542,-0.00005,-0.00203,-0.04755
-0.04773,-0.02815,0.05598,-0.00005,-0.00203,-0.04754
-0.04773,-0.02815,0.04653,-0.00005,-0.00203,-0.04753
-0.04773,-0.02815,0.03709,-0.00004,-0.00202,-0.04753
-0.04773,-0.02815,0.02764,-0.00004,-0.00204,-0.04752
-0.04773,-0.02815,0.01820,-0.00002,-0.00204,-0.04752
-0.04773,-0.02815,0.00875,-0.00002,-0.00203,-0.04752
-0.04773,-0.02815,-0.00069,-0.00000,-0.00201,-0.04752
-0.04773,-0.02815,-0.01013,0.00000,-0.00203,-0.04751
-0.04773,-0.02815,-0.01958,0.00001,-0.00202,-0.04752
-0.04773,-0.02815,-0.02902,0.00001,-0.00202,-0.04753
-0.04773,-0.02815,-0.03847,0.00004,-0.00203,-0.04753
-0.04773,-0.02815,-0.04791,0.00005,-0.00201,-0.04755
-0.04773,-0.02815,-0.05736,0.00005,-0.00201,-0.04756
-0.05718,-0.02815,-0.05736,0.00006,-0.00201,-0.04756
-0.05718,-0.02815,-0.04791,0.00005,-0.00201,-0.04754
-0.05718,-0.02815,-0.03847,0.00005,-0.00201,-0.04753
-0.05718,-0.02815,-0.02902,0.00003,-0.00203,-0.04752
-0.05718,-0.02815,-0.01958,0.00002,-0.00203,-0.04752
-0.05718,-0.02815,-0.01013,0.00000,-0.00203,-0.04751
-0.05718,-0.02815,-0.00069,-0.00001,-0.00203,-0.04751
-0.05718,-0.02815,0.00875,-0.00001,-0.00203,-0.04751
-0.05718,-0.02815,0.01820,-0.00003,-0.00202,-0.04751
-0.05718,-0.02815,0.02764,-0.00003,-0.00203,-0.04751
-0.05718,-0.02815,0.03709,-0.00003,-0.00203,-0.04752
-0.05718,-0.02815,0.04653,-0.00005,-0.00203,-0.04753
-0.05718,-0.02815,0.05598,-0.00005,-0.00203,-0.04753
-0.06662,-0.02815,0.03709,-0.00004,-0.00203,-0.04753
-0.06662,-0.02815,0.02764,-0.00003,-0.00203,-0.04751
-0.06662,-0.02815,0.01820,-0.00002,-0.00203,-0.04750
-0.06662,-0.02815,0.00875,-0.00001,-0.00203,-0.04750
-0.06662,-0.02815,-0.00069,-0.00000,-0.00203,-0.04750
-0.06662,-0.02815,-0.01013,0.00002,-0.00202,-0.04750
-0.06662,-0.02815,-0.01958,0.00002,-0.00202,-0.04750
-0.06662,-0.02815,-0.02902,0.00004,-0.00202,-0.04750
-0.06662,-0.02815,-0.03847,0.00005,-0.00201,-0.04751
-0.07607,-0.02815,-0.01958,0.00002,-0.00202,-0.04750
-0.07607,-0.02815,-0.01013,0.00001,-0.00202,-0.04749
-0.07607,-0.02815,-0.00069,0.00000,-0.00203,-0.04749
-0.07607,-0.02815,0.00875,-0.00001,-0.00202,-0.04749
-0.07607,-0.02815,0.01820,-0.00003,-0.00202,-0.04749
-0.07607,-0.01871,0.02764,-0.00002,-0.00203,-0.04749
-0.07607,-0.01871,0.01820,-0.00003,-0.00202,-0.04749
-0.07607,-0.01871,0.00875,-0.00001,-0.00203,-0.04749
-0.07607,-0.01871,-0.00069,-0.00001,-0.00203,-0.04749
-0.07607,-0.01871,-0.01013,0.00000,-0.00202,-0.04749
-0.07607,-0.01871,-0.01958,0.00002,-0.00203,-0.04749
-0.07607,-0.01871,-0.02902,0.00004,-0.00202,-0.04750
-0.06662,-0.01871,-0.04791,0.00007,-0.00201,-0.04750
-0.06662,-0.01871,-0.03847,0.00005,-0.00201,-0.04752
-0.06662,-0.01871,-0.02902,0.00003,-0.00202,-0.04751
-0.06662,-0.01871,-0.01958,0.00001,-0.00202,-0.04751
-0.06662,-0.01871,-0.01013,0.00001,-0.00203,-0.04750
-0.06662,-0.01871,-0.00069,-0.00001,-0.00202,-0.04750
-0.06662,-0.01871,0.00875,-0.00001,-0.00204,-0.04750
-0.06662,-0.01871,0.01820,-0.00003,-0.00204,-0.04750
-0.06662,-0.01871,0.02764,-0.00004,-0.00202,-0.04750
-0.06662,-0.01871,0.03709,-0.00004,-0.00203,-0.04751
-0.06662,-0.01871,0.04653,-0.00006,-0.00203,-0.04752
-0.05718,-0.01871,0.05598,-0.00005,-0.00203,-0.04753
-0.05718,-0.01871,0.04653,-0.00004,-0.00204,-0.04753
-0.05718,-0.01871,0.03709,-0.00004,-0.00203,-0.04752
-0.05718,-0.01871,0.02764,-0.00004,-0.00203,-0.04751
-0.05718,-0.01871,0.01820,-0.00003,-0.00202,-0.04752
-0.05718,-0.01871,0.00875,-0.00002,-0.00203,-0.04751
-0.05718,-0.01871,-0.00069,-0.00001,-0.00203,-0.04751
-0.05718,-0.01871,-0.01013,-0.00000,-0.00203,-0.04751
-0.05718,-0.01871,-0.01958,0.00001,-0.00204,-0.04752
-0.05718,-0.01871,-0.02902,0.00002,-0.00203,-0.04752
-0.05718,-0.01871,-0.03847,0.00003,-0.00202,-0.04753
-0.05718,-0.01871,-0.04791,0.00005,-0.00202,-0.04754
-0.05718,-0.01871,-0.05736,0.00007,-0.00202,-0.04755
-0.04773,-0.01871,-0.06680,0.00009,-0.00201,-0.04757
-0.04773,-0.01871,-0.05736,0.00004,-0.00201,-0.04759
-0.04773,-0.01871,-0.04791,0.00004,-0.00201,-0.04756
-0.04773,-0.01871,-0.03847,0.00002,-0.00202,-0.04754
-0.04773,-0.01871,-0.02902,0.00000,-0.00203,-0.04753
-0.04773,-0.01871,-0.01958,-0.00000,-0.00204,-0.04752
-0.04773,-0.01871,-0.01013,-0.00001,-0.00202,-0.04752
-0.04773,-0.01871,-0.00069,-0.00001,-0.00203,-0.04751
-0.04773,-0.01871,0.00875,-0.00002,-0.00204,-0.04752
-0.04773,-0.01871,0.01820,-0.00004,-0.00204,-0.04752
-0.04773,-0.01871,0.02764,-0.00005,-0.00203,-0.04752
-0.04773,-0.01871,0.03709,-0.00006,-0.00203,-0.04753
-0.04773,-0.01871,0.04653,-0.00005,-0.00203,-0.04753
-0.04773,-0.01871,0.05598,-0.00006,-0.00204,-0.04754
-0.04773,-0.01871,0.06542,-0.00006,-0.00201,-0.04754
-0.03829,-0.01871,0.06542,-0.00005,-0.00202,-0.04755
-0.03829,-0.01871,0.05598,-0.00005,-0.00202,-0.04754
-0.03829,-0.01871,0.04653,-0.00005,-0.00203,-0.04754
-0.03829,-0.01871,0.03709,-0.00004,-0.00203,-0.04753
-0.03829,-0.01871,0.02764,-0.00004,-0.00203,-0.04753
-0.03829,-0.01871,0.01820,-0.00003,-0.00204,-0.04752
-0.03829,-0.01871,0.00875,-0.00003,-0.00203,-0.04753
-0.03829,-0.01871,-0.00069,-0.00002,-0.00203,-0.04753
-0.03829,-0.01871,-0.01013,-0.00001,-0.00203,-0.04752
-0.03829,-0.01871,-0.01958,-0.00001,-0.00204,-0.04753
-0.03829,-0.01871,-0.02902,0.00001,-0.00203,-0.04754
-0.03829,-0.01871,-0.03847,0.00001,-0.00203,-0.04755
-0.03829,-0.01871,-0.04791,0.00001,-0.00202,-0.04756
-0.03829,-0.01871,-0.05736,0.00003,-0.00202,-0.04758
-0.03829,-0.01871,-0.06680,0.00004,-0.00201,-0.04760
-0.02884,-0.01871,-0.07625,0.00006,-0.00200,-0.04764
-0.02884,-0.01871,-0.06680,0.00002,-0.00202,-0.04762
-0.02884,-0.01871,-0.05736,0.00001,-0.00202,-0.04760
-0.02884,-0.01871,-0.04791,0.00001,-0.00202,-0.04758
-0.02884,-0.01871,-0.03847,-0.00001,-0.00202,-0.04756
-0.02884,-0.01871,-0.02902,-0.00001,-0.00203,-0.04755
-0.02884,-0.01871,-0.01958,-0.00002,-0.00203,-0.04754
-0.02884,-0.01871,-0.01013,-0.00003,-0.00204,-0.04753
-0.02884,-0.01871,-0.00069,-0.00003,-0.00203,-0.04753
-0.02884,-0.01871,0.00875,-0.00004,-0.00204,-0.04753
-0.02884,-0.01871,0.01820,-0.00005,-0.00203,-0.04753
-0.02884,-0.01871,0.02764,-0.00005,-0.00204,-0.04753
-0.02884,-0.01871,0.03709,-0.00005,-0.00203,-0.04753
-0.02884,-0.01871,0.04653,-0.00006,-0.00204,-0.04753
-0.02884,-0.01871,0.05598,-0.00006,-0.00204,-0.04754
-0.02884,-0.01871,0.06542,-0.00007,-0.00203,-0.04755
-0.02884,-0.01871,0.07487,-0.00007,-0.00204,-0.04755
-0.01940,-0.01871,0.07487,-0.00007,-0.00204,-0.04756
-0.01940,-0.01871,0.06542,-0.00007,-0.00204,-0.04756
-0.01940,-0.01871,0.05598,-0.00006,-0.00203,-0.04756
-0.01940,-0.01871,0.04653,-0.00005,-0.00204,-0.04755
-0.01940,-0.01871,0.03709,-0.00006,-0.00204,-0.04754
-0.01940,-0.01871,0.02764,-0.00005,-0.00204,-0.04754
-0.01940,-0.01871,0.01820,-0.00004,-0.00204,-0.04754
-0.01940,-0.01871,0.00875,-0.00004,-0.00204,-0.04753
-0.01940,-0.01871,-0.00069,-0.00004,-0.00204,-0.04753
-0.01940,-0.01871,-0.01013,-0.00002,-0.00202,-0.04754
-0.01940,-0.01871,-0.01958,-0.00003,-0.00202,-0.04754
-0.01940,-0.01871,-0.02902,-0.00003,-0.00202,-0.04755
-0.01940,-0.01871,-0.03847,-0.00001,-0.00203,-0.04756
-0.01940,-0.01871,-0.04791,-0.00001,-0.00202,-0.04757
-0.01940,-0.01871,-0.05736,-0.00001,-0.00201,-0.04759
-0.01940,-0.01871,-0.06680,0.00000,0.00000,0.00000
-0.01940,-0.01871,-0.07625,-0.00001,-0.00200,-0.04764
-0.00995,-0.01871,-0.07625,-0.00004,-0.00200,-0.04765
-0.00995,-0.01871,-0.06680,-0.00003,-0.00200,-0.04763
-0.00995,-0.01871,-0.05736,-0.00003,-0.00201,-0.04761
-0.00995,-0.01871,-0.04791,-0.00003,-0.00202,-0.04759
-0.00995,-0.01871,-0.03847,-0.00003,-0.00203,-0.04757
-0.00995,-0.01871,-0.02902,-0.00004,-0.00202,-0.04755
-0.00995,-0.01871,-0.01958,-0.00003,-0.00204,-0.04755
-0.00995,-0.01871,-0.01013,-0.00003,-0.00204,-0.04754
-0.00995,-0.01871,-0.00069,-0.00004,-0.00204,-0.04753
-0.00995,-0.01871,0.00875,-0.00005,-0.00204,-0.04754
-0.00995,-0.01871,0.01820,-0.00004,-0.00205,-0.04753
-0.00995,-0.01871,0.02764,-0.00005,-0.00205,-0.04754
-0.00995,-0.01871,0.03709,-0.00006,-0.00203,-0.04754
-0.00995,-0.01871,0.04653,-0.00006,-0.00204,-0.04754
-0.00995,-0.01871,0.05598,-0.00005,-0.00205,-0.04755
-0.00995,-0.01871,0.06542,-0.00006,-0.00204,-0.04755
-0.00995,-0.01871,0.07487,-0.00006,-0.00203,-0.04756
-0.00051,-0.01871,0.07487,-0.00006,-0.00204,-0.04756
-0.00051,-0.01871,0.06542,-0.00006,-0.00204,-0.04755
-0.00051,-0.01871,0.05598,-0.00007,-0.00205,-0.04755
-0.00051,-0.01871,0.04653,-0.00007,-0.00204,-0.04755
-0.00051,-0.01871,0.03709,-0.00006,-0.00204,-0.04755
-0.00051,-0.01871,0.02764,-0.00005,-0.00205,-0.04754
-0.00051,-0.01871,0.01820,-0.00005,-0.00204,-0.04754
-0.00051,-0.01871,0.00875,-0.00004,-0.00204,-0.04754
-0.00051,-0.01871,-0.00069,-0.00005,-0.00204,-0.04754
-0.00051,-0.01871,-0.01013,-0.00004,-0.00204,-0.04754
-0.00051,-0.01871,-0.01958,-0.00004,-0.00203,-0.04754
-0.00051,-0.01871,-0.02902,-0.00005,-0.00204,-0.04755
-0.00051,-0.01871,-0.03847,-0.00005,-0.00203,-0.04756
-0.00051,-0.01871,-0.04791,-0.00004,-0.00202,-0.04758
-0.00051,-0.01871,-0.05736,-0.00005,-0.00202,-0.04759
-0.00051,-0.01871,-0.06680,-0.00004,-0.00201,-0.04761
-0.00051,-0.01871,-0.07625,-0.00006,-0.00200,-0.04763
0.00893,-0.01871,-0.07625,-0.00008,-0.00199,-0.04764
0.00893,-0.01871,-0.06680,-0.00006,-0.00201,-0.04762
0.00893,-0.01871,-0.05736,-0.00007,-0.00202,-0.04760
0.00893,-0.01871,-0.04791,-0.00005,-0.00203,-0.04759
0.00893,-0.01871,-0.03847,-0.00007,-0.00203,-0.04757
0.00893,-0.01871,-0.02902,-0.00005,-0.00204,-0.04756
0.00893,-0.01871,-0.01958,-0.00006,-0.00203,-0.04755
0.00893,-0.01871,-0.01013,-0.00006,-0.00204,-0.04754
0.00893,-0.01871,-0.00069,-0.00006,-0.00204,-0.04754
0.00893,-0.01871,0.00875,-0.00006,-0.00204,-0.04754
0.00893,-0.01871,0.01820,-0.00006,-0.00204,-0.04754
0.00893,-0.01871,0.02764,-0.00007,-0.00204,-0.04754
0.00893,-0.01871,0.03709,-0.00006,-0.00205,-0.04754
0.00893,-0.01871,0.04653,-0.00005,-0.00205,-0.04755
0.00893,-0.01871,0.05598,-0.00006,-0.00204,-0.04755
0.00893,-0.01871,0.06542,-0.00007,-0.00204,-0.04755
0.00893,-0.01871,0.07487,-0.00007,-0.00205,-0.04756
0.01838,-0.01871,0.07487,-0.00008,-0.00206,-0.04756
0.01838,-0.01871,0.06542,-0.00007,-0.00205,-0.04756
0.01838,-0.01871,0.05598,-0.00006,-0.00205,-0.04756
0.01838,-0.01871,0.04653,-0.00006,-0.00204,-0.04755
0.01838,-0.01871,0.03709,-0.00006,-0.00205,-0.04756
0.01838,-0.01871,0.02764,-0.00006,-0.00205,-0.04754
0.01838,-0.01871,0.01820,-0.00006,-0.00205,-0.04754
0.01838,-0.01871,0.00875,-0.00006,-0.00205,-0.04754
0.01838,-0.01871,-0.00069,-0.00007,-0.00204,-0.04754
0.01838,-0.01871,-0.01013,-0.00006,-0.00205,-0.04755
0.01838,-0.01871,-0.01958,-0.00006,-0.00204,-0.04754
0.01838,-0.01871,-0.02902,-0.00006,-0.00204,-0.04755
0.01838,-0.01871,-0.03847,-0.00007,-0.00203,-0.04756
0.01838,-0.01871,-0.04791,-0.00007,-0.00203,-0.04756
0.01838,-0.01871,-0.05736,-0.00006,-0.00201,-0.04759
0.01838,-0.01871,-0.06680,-0.00008,-0.00201,-0.04760
0.01838,-0.01871,-0.07625,-0.00009,-0.00200,-0.04763
0.02782,-0.01871,-0.07625,-0.00010,-0.00199,-0.04763
0.02782,-0.01871,-0.06680,-0.00011,-0.00200,-0.04761
0.02782,-0.01871,-0.05736,-0.00010,-0.00202,-0.04759
0.02782,-0.01871,-0.04791,-0.00008,-0.00202,-0.04757
0.02782,-0.01871,-0.03847,-0.00009,-0.00203,-0.04757
0.02782,-0.01871,-0.02902,-0.00007,-0.00204,-0.04756
0.02782,-0.01871,-0.01958,-0.00007,-0.00204,-0.04755
0.02782,-0.01871,-0.01013,-0.00007,-0.00205,-0.04754
0.02782,-0.01871,-0.00069,-0.00007,-0.00205,-0.04754
0.02782,-0.01871,0.00875,-0.00006,-0.00205,-0.04754
0.02782,-0.01871,0.01820,0.00000,0.00000,0.00000
0.02782,-0.01871,0.02764,-0.00007,-0.00205,-0.04755
0.02782,-0.01871,0.03709,-0.00006,-0.00206,-0.04755
0.02782,-0.01871,0.04653,-0.00007,-0.00206,-0.04755
0.02782,-0.01871,0.05598,-0.00008,-0.00206,-0.04756
0.02782,-0.01871,0.06542,-0.00008,-0.00205,-0.04756
0.02782,-0.01871,0.07487,-0.00008,-0.00206,-0.04757
0.03727,-0.01871,0.06542,-0.00007,-0.00205,-0.04756
0.03727,-0.01871,0.05598,-0.00007,-0.00206,-0.04756
0.03727,-0.01871,0.04653,-0.00006,-0.00206,-0.04756
0.03727,-0.01871,0.03709,-0.00005,-0.00206,-0.04756
0.03727,-0.01871,0.02764,-0.00007,-0.00205,-0.04755
0.03727,-0.01871,0.01820,-0.00007,-0.00205,-0.04754
0.03727,-0.01871,0.00875,-0.00008,-0.00204,-0.04754
0.03727,-0.01871,-0.00069,-0.00006,-0.00204,-0.04754
0.03727,-0.01871,-0.01013,-0.00008,-0.00205,-0.04753
0.03727,-0.01871,-0.01958,-0.00008,-0.00205,-0.04753
0.03727,-0.01871,-0.02902,-0.00008,-0.00203,-0.04755
0.03727,-0.01871,-0.03847,-0.00009,-0.00203,-0.04755
0.03727,-0.01871,-0.04791,-0.00009,-0.00202,-0.04756
0.03727,-0.01871,-0.05736,-0.00011,-0.00201,-0.04757
0.03727,-0.01871,-0.06680,-0.00012,-0.00201,-0.04759
0.04671,-0.01871,-0.06680,-0.00013,-0.00200,-0.04758
0.04671,-0.01871,-0.05736,-0.00012,-0.00201,-0.04757
0.04671,-0.01871,-0.04791,-0.00010,-0.00202,-0.04756
0.04671,-0.01871,-0.03847,-0.00010,-0.00203,-0.04755
0.04671,-0.01871,-0.02902,-0.00009,-0.00205,-0.04754
0.04671,-0.01871,-0.01958,-0.00009,-0.00204,-0.04754
0.04671,-0.01871,-0.01013,-0.00007,-0.00205,-0.04753
0.04671,-0.01871,-0.00069,-0.00007,-0.00205,-0.04753
0.04671,-0.01871,0.00875,-0.00007,-0.00204,-0.04753
0.04671,-0.01871,0.01820,-0.00007,-0.00206,-0.04753
0.04671,-0.01871,0.02764,-0.00007,-0.00205,-0.04754
0.04671,-0.01871,0.03709,-0.00005,-0.00205,-0.04754
0.04671,-0.01871,0.04653,-0.00006,-0.00206,-0.04755
0.04671,-0.01871,0.05598,-0.00006,-0.00206,-0.04756
0.04671,-0.01871,0.06542,-0.00007,-0.00206,-0.04757
0.05616,-0.01871,0.05598,-0.00006,-0.00206,-0.04757
0.05616,-0.01871,0.04653,-0.00007,-0.00206,-0.04756
0.05616,-0.01871,0.03709,-0.00007,-0.00206,-0.04755
0.05616,-0.01871,0.02764,-0.00007,-0.00206,-0.04754
0.05616,-0.01871,0.01820,-0.00006,-0.00206,-0.04754
0.05616,-0.01871,0.00875,-0.00007,-0.00205,-0.04753
0.05616,-0.01871,-0.00069,-0.00007,-0.00205,-0.04753
0.05616,-0.01871,-0.01013,-0.00008,-0.00205,-0.04753
0.05616,-0.01871,-0.01958,-0.00009,-0.00205,-0.04753
0.05616,-0.01871,-0.02902,-0.00009,-0.00204,-0.04753
0.05616,-0.01871,-0.03847,-0.00011,-0.00202,-0.04753
0.05616,-0.01871,-0.04791,-0.00010,-0.00202,-0.04754
0.05616,-0.01871,-0.05736,-0.00013,-0.00201,-0.04755
0.06560,-0.01871,-0.04791,-0.00010,-0.00202,-0.04754
0.06560,-0.01871,-0.03847,-0.00010,-0.00203,-0.04753
0.06560,-0.01871,-0.02902,-0.00010,-0.00204,-0.04753
0.06560,-0.01871,-0.01958,-0.00009,-0.00204,-0.04752
0.06560,-0.01871,-0.01013,-0.00009,-0.00205,-0.04752
0.06560,-0.01871,-0.00069,-0.00008,-0.00205,-0.04752
0.06560,-0.01871,0.00875,-0.00008,-0.00205,-0.04752
0.06560,-0.01871,0.01820,-0.00007,-0.00205,-0.04753
0.06560,-0.01871,0.02764,-0.00007,-0.00205,-0.04753
0.06560,-0.01871,0.03709,-0.00007,-0.00206,-0.04754
0.06560,-0.01871,0.04653,-0.00006,-0.00206,-0.04755
0.07505,-0.01871,0.02764,-0.00007,-0.00206,-0.04755
0.07505,-0.01871,0.01820,-0.00006,-0.00206,-0.04753
0.07505,-0.01871,0.00875,-0.00007,-0.00205,-0.04752
0.07505,-0.01871,-0.00069,0.00000,0.00000,0.00000
0.07505,-0.01871,-0.01013,-0.00008,-0.00205,-0.04752
0.07505,-0.01871,-0.01958,-0.00009,-0.00204,-0.04751
0.07505,-0.01871,-0.02902,-0.00009,-0.00203,-0.04751
0.07505,-0.00926,-0.02902,-0.00010,-0.00204,-0.04752
0.07505,-0.00926,-0.01958,-0.00009,-0.00205,-0.04752
0.07505,-0.00926,-0.01013,-0.00008,-0.00205,-0.04752
0.07505,-0.00926,-0.00069,-0.00008,-0.00204,-0.04752
0.07505,-0.00926,0.00875,-0.00007,-0.00205,-0.04752
0.07505,-0.00926,0.01820,-0.00007,-0.00205,-0.04753
0.07505,-0.00926,0.02764,-0.00006,-0.00205,-0.04753
0.07505,-0.00926,0.03709,-0.00007,-0.00205,-0.04754
0.06560,-0.00926,0.04653,-0.00007,-0.00206,-0.04756
0.06560,-0.00926,0.03709,-0.00006,-0.00206,-0.04755
0.06560,-0.00926,0.02764,-0.00006,-0.00205,-0.04754
0.06560,-0.00926,0.01820,-0.00008,-0.00205,-0.04754
0.06560,-0.00926,0.00875,-0.00008,-0.00205,-0.04753
0.06560,-0.00926,-0.00069,-0.00008,-0.00205,-0.04753
0.06560,-0.00926,-0.01013,-0.00008,-0.00206,-0.04753
0.06560,-0.00926,-0.01958,0.00000,0.00000,0.00000
0.06560,-0.00926,-0.02902,-0.00009,-0.00204,-0.04753
0.06560,-0.00926,-0.03847,-0.00010,-0.00203,-0.04753
0.06560,-0.00926,-0.04791,-0.00011,-0.00202,-0.04754
0.05616,-0.00926,-0.05736,-0.00014,-0.00202,-0.04755
0.05616,-0.00926,-0.04791,-0.00011,-0.00203,-0.04756
0.05616,-0.00926,-0.03847,-0.00011,-0.00203,-0.04755
0.05616,-0.00926,-0.02902,-0.00009,-0.00204,-0.04754
0.05616,-0.00926,-0.01958,-0.00008,-0.00205,-0.04754
0.05616,-0.00926,-0.01013,-0.00009,-0.00205,-0.04753
0.05616,-0.00926,-0.00069,-0.00008,-0.00205,-0.04753
0.05616,-0.00926,0.00875,-0.00008,-0.00204,-0.04754
0.05616,-0.00926,0.01820,-0.00007,-0.00206,-0.04753
0.05616,-0.00926,0.02764,-0.00007,-0.00204,-0.04754
0.05616,-0.00926,0.03709,-0.00008,-0.00205,-0.04754
0.05616,-0.00926,0.04653,-0.00008,-0.00205,-0.04755
0.05616,-0.00926,0.05598,-0.00007,-0.00206,-0.04757
0.04671,-0.00926,0.06542,-0.00008,-0.00206,-0.04758
0.04671,-0.00926,0.05598,-0.00008,-0.00205,-0.04757
0.04671,-0.00926,0.04653,-0.00006,-0.00204,-0.04756
0.04671,-0.00926,0.03709,-0.00008,-0.00206,-0.04755
0.04671,-0.00926,0.02764,-0.00007,-0.00206,-0.04755
0.04671,-0.00926,0.01820,-0.00006,-0.00205,-0.04754
0.04671,-0.00926,0.00875,-0.00007,-0.00205,-0.04754
0.04671,-0.00926,-0.00069,-0.00007,-0.00204,-0.04754
0.04671,-0.00926,-0.01013,-0.00007,-0.00205,-0.04753
0.04671,-0.00926,-0.01958,-0.00007,-0.00204,-0.04754
0.04671,-0.00926,-0.02902,-0.00008,-0.00204,-0.04754
0.04671,-0.00926,-0.03847,-0.00010,-0.00203,-0.04755
0.04671,-0.00926,-0.04791,-0.00011,-0.00202,-0.04756
0.04671,-0.00926,-0.05736,-0.00012,-0.00202,-0.04757
0.04671,-0.00926,-0.06680,-0.00013,-0.00201,-0.04759
0.03727,-0.00926,-0.06680,-0.00011,-0.00201,-0.04760
0.03727,-0.00926,-0.05736,-0.00010,-0.00201,-0.04759
0.03727,-0.00926,-0.04791,-0.00010,-0.00203,-0.04758
0.03727,-0.00926,-0.03847,-0.00009,-0.00203,-0.04756
0.03727,-0.00926,-0.02902,-0.00008,-0.00204,-0.04756
0.03727,-0.00926,-0.01958,-0.00007,-0.00204,-0.04755
0.03727,-0.00926,-0.01013,-0.00007,-0.00204,-0.04754
0.03727,-0.00926,-0.00069,-0.00007,-0.00204,-0.04754
0.03727,-0.00926,0.00875,-0.00006,-0.00204,-0.04754
0.03727,-0.00926,0.01820,-0.00007,-0.00205,-0.04755
0.03727,-0.00926,0.02764,-0.00007,-0.00204,-0.04755
0.03727,-0.00926,0.03709,-0.00007,-0.00205,-0.04755
0.03727,-0.00926,0.04653,-0.00008,-0.00204,-0.04756
0.03727,-0.00926,0.05598,-0.00007,-0.00204,-0.04756
0.03727,-0.00926,0.06542,-0.00008,-0.00205,-0.04757
0.03727,-0.00926,0.07487,-0.00008,-0.00205,-0.04758
0.02782,-0.00926,0.07487,-0.00009,-0.00204,-0.04756
0.02782,-0.00926,0.06542,-0.00007,-0.00204,-0.04757
0.02782,-0.00926,0.05598,-0.00007,-0.00204,-0.04756
0.02782,-0.00926,0.04653,-0.00007,-0.00205,-0.04756
0.02782,-0.00926,0.03709,-0.00007,-0.00204,-0.04755
0.02782,-0.00926,0.02764,-0.00006,-0.00205,-0.04755
0.02782,-0.00926,0.01820,-0.00007,-0.00204,-0.04754
0.02782,-0.00926,0.00875,-0.00006,-0.00204,-0.04754
0.02782,-0.00926,-0.00069,-0.00007,-0.00204,-0.04754
0.02782,-0.00926,-0.01013,-0.00007,-0.00203,-0.04754
0.02782,-0.00926,-0.01958,-0.00008,-0.00204,-0.04755
0.02782,-0.00926,-0.02902,-0.00007,-0.00203,-0.04755
0.02782,-0.00926,-0.03847,-0.00007,-0.00203,-0.04756
0.02782,-0.00926,-0.04791,-0.00009,-0.00202,-0.04758
0.02782,-0.00926,-0.05736,-0.00009,-0.00202,-0.04759
0.02782,-0.00926,-0.06680,-0.00011,-0.00201,-0.04761
0.02782,-0.00926,-0.07625,-0.00010,-0.00200,-0.04763
0.01838,-0.00926,-0.07625,-0.00008,-0.00199,-0.04764
0.01838,-0.00926,-0.06680,-0.00008,-0.00201,-0.04763
0.01838,-0.00926,-0.05736,-0.00009,-0.00202,-0.04761
0.01838,-0.00926,-0.04791,-0.00007,-0.00203,-0.04759
0.01838,-0.00926,-0.03847,-0.00008,-0.00204,-0.04757
0.01838,-0.00926,-0.02902,-0.00007,-0.00203,-0.04756
0.01838,-0.00926,-0.01958,-0.00006,-0.00204,-0.04756
0.01838,-0.00926,-0.01013,-0.00006,-0.00203,-0.04755
0.01838,-0.00926,-0.00069,-0.00007,-0.00203,-0.04755
0.01838,-0.00926,0.00875,-0.00007,-0.00205,-0.04754
0.01838,-0.00926,0.01820,-0.00006,-0.00204,-0.04754
0.01838,-0.00926,0.02764,-0.00006,-0.00204,-0.04754
0.01838,-0.00926,0.03709,-0.00006,-0.00205,-0.04755
0.01838,-0.00926,0.04653,-0.00007,-0.00204,-0.04755
0.01838,-0.00926,0.05598,-0.00007,-0.00204,-0.04755
0.01838,-0.00926,0.06542,-0.00008,-0.00204,-0.04756
0.01838,-0.00926,0.07487,-0.00008,-0.00205,-0.04756
0.00893,-0.00926,0.07487,-0.00006,-0.00204,-0.04756
0.00893,-0.00926,0.06542,-0.00007,-0.00204,-0.04756
0.00893,-0.00926,0.05598,-0.00007,-0.00204,-0.04756
0.00893,-0.00926,0.04653,-0.00007,-0.00204,-0.04755
0.00893,-0.00926,0.03709,-0.00007,-0.00205,-0.04755
0.00893,-0.00926,0.02764,-0.00006,-0.00204,-0.04754
0.00893,-0.00926,0.01820,-0.00006,-0.00203,-0.04754
0.00893,-0.00926,0.00875,-0.00007,-0.00204,-0.04754
0.00893,-0.00926,-0.00069,-0.00006,-0.00204,-0.04754
0.00893,-0.00926,-0.01013,-0.00005,-0.00203,-0.04755
0.00893,-0.00926,-0.01958,-0.00006,-0.00204,-0.04755
0.00893,-0.00926,-0.02902,-0.00005,-0.00204,-0.04756
0.00893,-0.00926,-0.03847,-0.00007,-0.00203,-0.04757
0.00893,-0.00926,-0.04791,-0.00006,-0.00202,-0.04758
0.00893,-0.00926,-0.05736,-0.00006,-0.00202,-0.04760
0.00893,-0.00926,-0.06680,-0.00006,-0.00201,-0.04761
0.00893,-0.00926,-0.07625,-0.00007,-0.00200,-0.04764
-0.00051,-0.00926,-0.07625,-0.00005,-0.00200,-0.04765
-0.00051,-0.00926,-0.06680,-0.00006,-0.00201,-0.04763
-0.00051,-0.00926,-0.05736,-0.00006,-0.00202,-0.04762
-0.00051,-0.00926,-0.04791,-0.00005,-0.00202,-0.04759
-0.00051,-0.00926,-0.03847,-0.00004,-0.00203,-0.04758
-0.00051,-0.00926,-0.02902,-0.00005,-0.00204,-0.04756
-0.00051,-0.00926,-0.01958,-0.00005,-0.00204,-0.04756
-0.00051,-0.00926,-0.01013,-0.00004,-0.00204,-0.04755
-0.00051,-0.00926,-0.00069,-0.00005,-0.00204,-0.04754
-0.00051,-0.00926,0.00875,-0.00006,-0.00204,-0.04755
-0.00051,-0.00926,0.01820,-0.00006,-0.00203,-0.04754
-0.00051,-0.00926,0.02764,-0.00006,-0.00204,-0.04754
-0.00051,-0.00926,0.03709,-0.00007,-0.00204,-0.04755
-0.00051,-0.00926,0.04653,-0.00007,-0.00204,-0.04755
-0.00051,-0.00926,0.05598,-0.00006,-0.00203,-0.04755
-0.00051,-0.00926,0.06542,-0.00007,-0.00204,-0.04755
-0.00051,-0.00926,0.07487,-0.00008,-0.00203,-0.04755
-0.00995,-0.00926,0.07487,-0.00009,-0.00203,-0.04756
-0.00995,-0.00926,0.06542,-0.00007,-0.00204,-0.04756
-0.00995,-0.00926,0.05598,-0.00006,-0.00203,-0.04755
-0.00995,-0.00926,0.04653,-0.00007,-0.00204,-0.04755
-0.00995,-0.00926,0.03709,-0.00006,-0.00204,-0.04755
-0.00995,-0.00926,0.02764,-0.00006,-0.00204,-0.04754
-0.00995,-0.00926,0.01820,-0.00005,-0.00204,-0.04754
-0.00995,-0.00926,0.00875,-0.00005,-0.00203,-0.04753
-0.00995,-0.00926,-0.00069,-0.00004,-0.00204,-0.04754
-0.00995,-0.00926,-0.01013,-0.00005,-0.00204,-0.04754
-0.00995,-0.00926,-0.01958,-0.00004,-0.00203,-0.04755
-0.00995,-0.00926,-0.02902,-0.00003,-0.00203,-0.04756
-0.00995,-0.00926,-0.03847,-0.00003,-0.00202,-0.04757
-0.00995,-0.00926,-0.04791,-0.00004,-0.00202,-0.04758
-0.00995,-0.00926,-0.05736,-0.00004,-0.00202,-0.04760
-0.00995,-0.00926,-0.06680,-0.00004,-0.00201,-0.04762
-0.00995,-0.00926,-0.07625,-0.00004,-0.00201,-0.04764
-0.01940,-0.00926,-0.07625,-0.00002,-0.00201,-0.04766
-0.01940,-0.00926,-0.06680,-0.00001,-0.00202,-0.04763
-0.01940,-0.00926,-0.05736,-0.00002,-0.00202,-0.04762
-0.01940,-0.00926,-0.04791,-0.00001,-0.00202,-0.04759
-0.01940,-0.00926,-0.03847,-0.00003,-0.00202,-0.04757
-0.01940,-0.00926,-0.02902,-0.00003,-0.00204,-0.04756
-0.01940,-0.00926,-0.01958,-0.00004,-0.00202,-0.04755
-0.01940,-0.00926,-0.01013,-0.00004,-0.00203,-0.04754
-0.01940,-0.00926,-0.00069,-0.00005,-0.00202,-0.04754
-0.01940,-0.00926,0.00875,-0.00005,-0.00203,-0.04754
-0.01940,-0.00926,0.01820,-0.00005,-0.00203,-0.04753
-0.01940,-0.00926,0.02764,-0.00006,-0.00203,-0.04754
-0.01940,-0.00926,0.03709,-0.00006,-0.00203,-0.04754
-0.01940,-0.00926,0.04653,-0.00005,-0.00203,-0.04755
-0.01940,-0.00926,0.05598,-0.00006,-0.00203,-0.04755
-0.01940,-0.00926,0.06542,-0.00007,-0.00202,-0.04755
-0.01940,-0.00926,0.07487,-0.00007,-0.00203,-0.04756
-0.02884,-0.00926,0.07487,-0.00008,-0.00202,-0.04756
-0.02884,-0.00926,0.06542,-0.00006,-0.00202,-0.04755
-0.02884,-0.00926,0.05598,-0.00007,-0.00202,-0.04754
-0.02884,-0.00926,0.04653,-0.00007,-0.00203,-0.04754
-0.02884,-0.00926,0.03709,-0.00006,-0.00204,-0.04753
-0.02884,-0.00926,0.02764,-0.00005,-0.00203,-0.04753
-0.02884,-0.00926,0.01820,-0.00005,-0.00203,-0.04753
-0.02884,-0.00926,0.00875,-0.00004,-0.00203,-0.04753
-0.02884,-0.00926,-0.00069,-0.00004,-0.00204,-0.04753
-0.02884,-0.00926,-0.01013,-0.00003,-0.00202,-0.04754
-0.02884,-0.00926,-0.01958,-0.00003,-0.00204,-0.04754
-0.02884,-0.00926,-0.02902,-0.00001,-0.00204,-0.04755
-0.02884,-0.00926,-0.03847,-0.00001,-0.00203,-0.04756
-0.02884,-0.00926,-0.04791,0.00001,-0.00202,-0.04757
-0.02884,-0.00926,-0.05736,0.00001,-0.00202,-0.04760
-0.02884,-0.00926,-0.06680,0.00001,-0.00201,-0.04762
-0.02884,-0.00926,-0.07625,0.00002,-0.00201,-0.04764
-0.03829,-0.00926,-0.06680,-0.00000,-0.00201,-0.04763
-0.03829,-0.00926,-0.05736,0.00003,-0.00201,-0.04760
-0.03829,-0.00926,-0.04791,0.00001,-0.00202,-0.04758
-0.03829,-0.00926,-0.03847,0.00001,-0.00203,-0.04756
-0.03829,-0.00926,-0.02902,0.00000,-0.00202,-0.04755
-0.03829,-0.00926,-0.01958,-0.00001,-0.00203,-0.04753
-0.03829,-0.00926,-0.01013,-0.00002,-0.00203,-0.04753
-0.03829,-0.00926,-0.00069,-0.00003,-0.00203,-0.04753
-0.03829,-0.00926,0.00875,-0.00003,-0.00202,-0.04753
-0.03829,-0.00926,0.01820,-0.00004,-0.00202,-0.04752
-0.03829,-0.00926,0.02764,-0.00005,-0.00203,-0.04752
-0.03829,-0.00926,0.03709,-0.00006,-0.00202,-0.04753
-0.03829,-0.00926,0.04653,-0.00006,-0.00202,-0.04754
-0.03829,-0.00926,0.05598,-0.00005,-0.00202,-0.04754
-0.03829,-0.00926,0.06542,-0.00006,-0.00202,-0.04754
-0.03829,-0.00926,0.07487,-0.00007,-0.00202,-0.04755
-0.04773,-0.00926,0.06542,-0.00007,-0.00203,-0.04755
-0.04773,-0.00926,0.05598,-0.00005,-0.00201,-0.04754
-0.04773,-0.00926,0.04653,-0.00005,-0.00203,-0.04753
-0.04773,-0.00926,0.03709,-0.00005,-0.00204,-0.04753
-0.04773,-0.00926,0.02764,-0.00005,-0.00203,-0.04752
-0.04773,-0.00926,0.01820,-0.00004,-0.00204,-0.04752
-0.04773,-0.00926,0.00875,-0.00002,-0.00202,-0.04751
-0.04773,-0.00926,-0.00069,-0.00002,-0.00202,-0.04752
-0.04773,-0.00926,-0.01013,-0.00001,-0.00202,-0.04752
-0.04773,-0.00926,-0.01958,0.00001,-0.00203,-0.04752
-0.04773,-0.00926,-0.02902,0.00001,-0.00202,-0.04753
-0.04773,-0.00926,-0.03847,0.00003,-0.00202,-0.04754
-0.04773,-0.00926,-0.04791,0.00004,-0.00202,-0.04755
-0.04773,-0.00926,-0.05736,0.00005,-0.00202,-0.04757
-0.04773,-0.00926,-0.06680,0.00007,-0.00201,-0.04760
-0.05718,-0.00926,-0.05736,0.00004,-0.00201,-0.04759
-0.05718,-0.00926,-0.04791,0.00004,-0.00201,-0.04756
-0.05718,-0.00926,-0.03847,0.00002,-0.00202,-0.04754
-0.05718,-0.00926,-0.02902,0.00001,-0.00203,-0.04753
-0.05718,-0.00926,-0.01958,0.00001,-0.00203,-0.04751
-0.05718,-0.00926,-0.01013,-0.00001,-0.00203,-0.04751
-0.05718,-0.00926,-0.00069,-0.00003,-0.00203,-0.04751
-0.05718,-0.00926,0.00875,-0.00003,-0.00202,-0.04751
-0.05718,-0.00926,0.01820,-0.00004,-0.00202,-0.04751
-0.05718,-0.00926,0.02764,-0.00004,-0.00202,-0.04751
-0.05718,-0.00926,0.03709,-0.00006,-0.00202,-0.04751
-0.05718,-0.00926,0.04653,-0.00005,-0.00202,-0.04753
-0.05718,-0.00926,0.05598,-0.00006,-0.00202,-0.04753
-0.06662,-0.00926,0.04653,-0.00008,-0.00202,-0.04753
-0.06662,-0.00926,0.03709,-0.00005,-0.00202,-0.04751
-0.06662,-0.00926,0.02764,-0.00004,-0.00201,-0.04751
-0.06662,-0.00926,0.01820,-0.00003,-0.00202,-0.04750
-0.06662,-0.00926,0.00875,-0.00003,-0.00202,-0.04750
-0.06662,-0.00926,-0.00069,-0.00001,-0.00202,-0.04750
-0.06662,-0.00926,-0.01013,-0.00000,-0.00202,-0.04750
-0.06662,-0.00926,-0.01958,0.00000,-0.00201,-0.04751
-0.06662,-0.00926,-0.02902,0.00002,-0.00203,-0.04751
-0.06662,-0.00926,-0.03847,0.00004,-0.00202,-0.04752
-0.06662,-0.00926,-0.04791,0.00005,-0.00202,-0.04753
-0.07607,-0.00926,-0.02902,0.00003,-0.00202,-0.04752
-0.07607,-0.00926,-0.01958,0.00002,-0.00203,-0.04749
-0.07607,-0.00926,-0.01013,0.00001,-0.00202,-0.04749
-0.07607,-0.00926,-0.00069,-0.00001,-0.00202,-0.04749
-0.07607,-0.00926,0.00875,-0.00003,-0.00202,-0.04749
-0.07607,-0.00926,0.01820,-0.00003,-0.00202,-0.04749
-0.07607,-0.00926,0.02764,-0.00004,-0.00202,-0.04750
-0.08551,0.00018,-0.00069,-0.00002,-0.00202,-0.04749
-0.07607,0.00018,0.03709,-0.00001,-0.00202,-0.04747
-0.07607,0.00018,0.02764,-0.00006,-0.00202,-0.04749
-0.07607,0.00018,0.01820,-0.00004,-0.00202,-0.04749
-0.07607,0.00018,0.00875,-0.00002,-0.00202,-0.04749
-0.07607,0.00018,-0.00069,-0.00002,-0.00203,-0.04749
-0.07607,0.00018,-0.01013,-0.00001,-0.00203,-0.04749
-0.07607,0.00018,-0.01958,0.00001,-0.00203,-0.04749
-0.07607,0.00018,-0.02902,0.00002,-0.00202,-0.04750
-0.07607,0.00018,-0.03847,0.00004,-0.00203,-0.04751
-0.06662,0.00018,-0.04791,0.00005,-0.00203,-0.04752
-0.06662,0.00018,-0.03847,0.00003,-0.00203,-0.04753
-0.06662,0.00018,-0.02902,0.00001,-0.00203,-0.04752
-0.06662,0.00018,-0.01958,0.00001,-0.00202,-0.04751
-0.06662,0.00018,-0.01013,-0.00001,-0.00203,-0.04750
-0.06662,0.00018,-0.00069,-0.00003,-0.00203,-0.04750
-0.06662,0.00018,0.00875,-0.00003,-0.00201,-0.04750
-0.06662,0.00018,0.01820,-0.00004,-0.00202,-0.04750
-0.06662,0.00018,0.02764,-0.00005,-0.00201,-0.04750
-0.06662,0.00018,0.03709,-0.00006,-0.00202,-0.04751
-0.06662,0.00018,0.04653,-0.00006,-0.00202,-0.04751
-0.05718,0.00018,0.05598,-0.00007,-0.00202,-0.04752
-0.05718,0.00018,0.04653,-0.00007,-0.00201,-0.04753
-0.05718,0.00018,0.03709,-0.00005,-0.00202,-0.04752
-0.05718,0.00018,0.02764,-0.00004,-0.00202,-0.04752
-0.05718,0.00018,0.01820,-0.00004,-0.00202,-0.04751
-0.05718,0.00018,0.00875,-0.00004,-0.00202,-0.04751
-0.05718,0.00018,-0.00069,-0.00003,-0.00203,-0.04751
-0.05718,0.00018,-0.01013,-0.00001,-0.00203,-0.04751
-0.05718,0.00018,-0.01958,-0.00001,-0.00204,-0.04752
-0.05718,0.00018,-0.02902,0.00001,-0.00203,-0.04753
-0.05718,0.00018,-0.03847,0.00002,-0.00202,-0.04754
-0.05718,0.00018,-0.04791,0.00005,-0.00203,-0.04754
-0.05718,0.00018,-0.05736,0.00005,-0.00203,-0.04756
-0.04773,0.00018,-0.06680,0.00008,-0.00203,-0.04758
-0.04773,0.00018,-0.05736,0.00004,-0.00202,-0.04759
-0.04773,0.00018,-0.04791,0.00004,-0.00202,-0.04759
-0.04773,0.00018,-0.03847,0.00001,-0.00203,-0.04756
-0.04773,0.00018,-0.02902,-0.00001,-0.00203,-0.04754
-0.04773,0.00018,-0.01958,-0.00001,-0.00203,-0.04753
-0.04773,0.00018,-0.01013,-0.00003,-0.00203,-0.04752
-0.04773,0.00018,-0.00069,-0.00003,-0.00202,-0.04752
-0.04773,0.00018,0.00875,-0.00004,-0.00204,-0.04752
-0.04773,0.00018,0.01820,-0.00005,-0.00202,-0.04752
-0.04773,0.00018,0.02764,-0.00006,-0.00202,-0.04752
-0.04773,0.00018,0.03709,-0.00005,-0.00202,-0.04752
-0.04773,0.00018,0.04653,-0.00007,-0.00202,-0.04753
-0.04773,0.00018,0.05598,-0.00008,-0.00201,-0.04753
-0.04773,0.00018,0.06542,-0.00007,-0.00202,-0.04754
-0.03829,0.00018,0.07487,-0.00008,-0.00201,-0.04755
-0.03829,0.00018,0.06542,-0.00008,-0.00202,-0.04755
-0.03829,0.00018,0.05598,-0.00007,-0.00202,-0.04754
-0.03829,0.00018,0.04653,-0.00007,-0.00202,-0.04754
-0.03829,0.00018,0.03709,-0.00007,-0.00203,-0.04753
-0.03829,0.00018,0.02764,-0.00006,-0.00202,-0.04753
-0.03829,0.00018,0.01820,-0.00005,-0.00204,-0.04752
-0.03829,0.00018,0.00875,-0.00004,-0.00203,-0.04752
-0.03829,0.00018,-0.00069,-0.00004,-0.00204,-0.04753
-0.03829,0.00018,-0.01013,-0.00002,-0.00203,-0.04753
-0.03829,0.00018,-0.01958,-0.00002,-0.00203,-0.04754
-0.03829,0.00018,-0.02902,-0.00001,-0.00203,-0.04755
-0.03829,0.00018,-0.03847,0.00000,-0.00203,-0.04755
-0.03829,0.00018,-0.04791,0.00001,-0.00202,-0.04757
-0.03829,0.00018,-0.05736,0.00002,-0.00202,-0.04759
-0.03829,0.00018,-0.06680,0.00003,-0.00201,-0.04761
-0.03829,0.00018,-0.07625,0.00005,-0.00202,-0.04764
-0.02884,0.00018,-0.07625,0.00002,-0.00202,-0.04766
-0.02884,0.00018,-0.06680,0.00000,-0.00202,-0.04763
-0.02884,0.00018,-0.05736,-0.00000,-0.00204,-0.04762
-0.02884,0.00018,-0.04791,-0.00001,-0.00203,-0.04759
-0.02884,0.00018,-0.03847,-0.00002,-0.00202,-0.04757
-0.02884,0.00018,-0.02902,-0.00002,-0.00204,-0.04756
-0.02884,0.00018,-0.01958,-0.00003,-0.00203,-0.04755
-0.02884,0.00018,-0.01013,-0.00004,-0.00203,-0.04754
-0.02884,0.00018,-0.00069,-0.00005,-0.00203,-0.04754
-0.02884,0.00018,0.00875,-0.00005,-0.00204,-0.04753
-0.02884,0.00018,0.01820,-0.00005,-0.00203,-0.04753
-0.02884,0.00018,0.02764,-0.00007,-0.00203,-0.04753
-0.02884,0.00018,0.03709,-0.00007,-0.00202,-0.04753
-0.02884,0.00018,0.04653,-0.00007,-0.00202,-0.04754
-0.02884,0.00018,0.05598,-0.00007,-0.00203,-0.04754
-0.02884,0.00018,0.06542,-0.00008,-0.00202,-0.04755
-0.02884,0.00018,0.07487,-0.00008,-0.00203,-0.04755
-0.01940,0.00018,0.07487,-0.00009,-0.00203,-0.04756
-0.01940,0.00018,0.06542,-0.00008,-0.00203,-0.04755
-0.01940,0.00018,0.05598,-0.00008,-0.00203,-0.04755
-0.01940,0.00018,0.04653,-0.00007,-0.00203,-0.04754
-0.01940,0.00018,0.03709,-0.00007,-0.00204,-0.04754
-0.01940,0.00018,0.02764,-0.00007,-0.00203,-0.04754
-0.01940,0.00018,0.01820,-0.00006,-0.00204,-0.04753
-0.01940,0.00018,0.00875,-0.00005,-0.00203,-0.04753
-0.01940,0.00018,-0.00069,-0.00005,-0.00204,-0.04754
-0.01940,0.00018,-0.01013,-0.00005,-0.00203,-0.04754
-0.01940,0.00018,-0.01958,-0.00004,-0.00204,-0.04755
-0.01940,0.00018,-0.02902,-0.00004,-0.00204,-0.04756
-0.01940,0.00018,-0.03847,-0.00003,-0.00203,-0.04757
-0.01940,0.00018,-0.04791,-0.00002,-0.00203,-0.04758
-0.01940,0.00018,-0.05736,-0.00002,-0.00202,-0.04760
-0.01940,0.00018,-0.06680,-0.00002,-0.00203,-0.04762
-0.01940,0.00018,-0.07625,-0.00001,-0.00202,-0.04765
-0.00995,0.00018,-0.07625,0.00000,0.00000,0.00000
-0.00995,0.00018,-0.06680,-0.00003,-0.00203,-0.04764
-0.00995,0.00018,-0.05736,-0.00004,-0.00202,-0.04762
-0.00995,0.00018,-0.04791,-0.00004,-0.00203,-0.04760
-0.00995,0.00018,-0.03847,-0.00005,-0.00203,-0.04758
-0.00995,0.00018,-0.02902,-0.00005,-0.00204,-0.04757
-0.00995,0.00018,-0.01958,-0.00005,-0.00203,-0.04756
-0.00995,0.00018,-0.01013,-0.00006,-0.00203,-0.04755
-0.00995,0.00018,-0.00069,-0.00006,-0.00204,-0.04754
-0.00995,0.00018,0.00875,-0.00007,-0.00204,-0.04754
-0.00995,0.00018,0.01820,-0.00007,-0.00203,-0.04753
-0.00995,0.00018,0.02764,-0.00007,-0.00204,-0.04754
-0.00995,0.00018,0.03709,0.00000,0.00000,0.00000
-0.00995,0.00018,0.04653,-0.00007,-0.00203,-0.04754
-0.00995,0.00018,0.05598,-0.00008,-0.00202,-0.04755
-0.00995,0.00018,0.06542,-0.00008,-0.00203,-0.04755
-0.00995,0.00018,0.07487,0.00000,0.00000,0.00000
-0.00051,0.00018,0.08431,-0.00009,-0.00203,-0.04756
-0.00051,0.00018,0.07487,-0.00009,-0.00203,-0.04756
-0.00051,0.00018,0.06542,-0.00008,-0.00204,-0.04755
-0.00051,0.00018,0.05598,-0.00008,-0.00203,-0.04755
-0.00051,0.00018,0.04653,-0.00007,-0.00204,-0.04754
-0.00051,0.00018,0.03709,-0.00006,-0.00204,-0.04754
-0.00051,0.00018,0.02764,-0.00008,-0.00204,-0.04754
-0.00051,0.00018,0.01820,-0.00007,-0.00203,-0.04754
-0.00051,0.00018,0.00875,-0.00007,-0.00204,-0.04754
-0.00051,0.00018,-0.00069,-0.00007,-0.00204,-0.04754
-0.00051,0.00018,-0.01013,-0.00007,-0.00205,-0.04755
-0.00051,0.00018,-0.01958,-0.00007,-0.00203,-0.04755
-0.00051,0.00018,-0.02902,-0.00006,-0.00204,-0.04756
-0.00051,0.00018,-0.03847,-0.00006,-0.00203,-0.04758
-0.00051,0.00018,-0.04791,-0.00004,-0.00203,-0.04759
-0.00051,0.00018,-0.05736,-0.00005,-0.00203,-0.04760
-0.00051,0.00018,-0.06680,-0.00006,-0.00202,-0.04762
-0.00051,0.00018,-0.07625,-0.00006,-0.00202,-0.04765
0.00893,0.00018,-0.07625,-0.00007,-0.00202,-0.04765
0.00893,0.00018,-0.06680,-0.00008,-0.00202,-0.04764
0.00893,0.00018,-0.05736,-0.00008,-0.00201,-0.04762
0.00893,0.00018,-0.04791,-0.00007,-0.00203,-0.04760
0.00893,0.00018,-0.03847,-0.00007,-0.00203,-0.04758
0.00893,0.00018,-0.02902,-0.00007,-0.00203,-0.04757
0.00893,0.00018,-0.01958,-0.00007,-0.00204,-0.04756
0.00893,0.00018,-0.01013,-0.00008,-0.00204,-0.04755
0.00893,0.00018,-0.00069,-0.00007,-0.00204,-0.04755
0.00893,0.00018,0.00875,-0.00007,-0.00204,-0.04755
0.00893,0.00018,0.01820,-0.00007,-0.00204,-0.04754
0.00893,0.00018,0.02764,-0.00007,-0.00204,-0.04755
0.00893,0.00018,0.03709,-0.00009,-0.00204,-0.04754
0.00893,0.00018,0.04653,-0.00009,-0.00204,-0.04755
0.00893,0.00018,0.05598,-0.00008,-0.00204,-0.04755
0.00893,0.00018,0.06542,-0.00008,-0.00203,-0.04756
0.00893,0.00018,0.07487,-0.00010,-0.00204,-0.04756
0.01838,0.00018,0.07487,-0.00009,-0.00204,-0.04756
0.01838,0.00018,0.06542,0.00000,0.00000,0.00000
0.01838,0.00018,0.05598,-0.00009,-0.00204,-0.04756
0.01838,0.00018,0.04653,-0.00009,-0.00204,-0.04756
0.01838,0.00018,0.03709,-0.00007,-0.00204,-0.04755
0.01838,0.00018,0.02764,-0.00007,-0.00204,-0.04755
0.01838,0.00018,0.01820,-0.00007,-0.00204,-0.04755
0.01838,0.00018,0.00875,-0.00007,-0.00204,-0.04754
0.01838,0.00018,-0.00069,-0.00008,-0.00205,-0.04755
0.01838,0.00018,-0.01013,-0.00007,-0.00205,-0.04755
0.01838,0.00018,-0.01958,-0.00007,-0.00205,-0.04756
0.01838,0.00018,-0.02902,-0.00008,-0.00204,-0.04756
0.01838,0.00018,-0.03847,-0.00007,-0.00203,-0.04758
0.01838,0.00018,-0.04791,-0.00008,-0.00203,-0.04759
0.01838,0.00018,-0.05736,-0.00008,-0.00203,-0.04760
0.01838,0.00018,-0.06680,-0.00010,-0.00202,-0.04762
0.01838,0.00018,-0.07625,-0.00010,-0.00202,-0.04764
0.02782,0.00018,-0.07625,-0.00013,-0.00202,-0.04764
0.02782,0.00018,-0.06680,-0.00011,-0.00202,-0.04763
0.02782,0.00018,-0.05736,-0.00010,-0.00203,-0.04761
0.02782,0.00018,-0.04791,-0.00010,-0.00204,-0.04759
0.02782,0.00018,-0.03847,-0.00009,-0.00203,-0.04758
0.02782,0.00018,-0.02902,-0.00009,-0.00205,-0.04756
0.02782,0.00018,-0.01958,-0.00009,-0.00203,-0.04756
0.02782,0.00018,-0.01013,-0.00009,-0.00204,-0.04755
0.02782,0.00018,-0.00069,-0.00008,-0.00204,-0.04755
0.02782,0.00018,0.00875,-0.00009,-0.00205,-0.04755
0.02782,0.00018,0.01820,-0.00007,-0.00204,-0.04754
0.02782,0.00018,0.02764,-0.00008,-0.00205,-0.04754
0.02782,0.00018,0.03709,-0.00008,-0.00204,-0.04755
0.02782,0.00018,0.04653,-0.00008,-0.00205,-0.04755
0.02782,0.00018,0.05598,-0.00008,-0.00204,-0.04755
0.02782,0.00018,0.06542,-0.00010,-0.00204,-0.04756
0.02782,0.00018,0.07487,-0.00009,-0.00204,-0.04757
0.03727,0.00018,0.07487,-0.00007,-0.00204,-0.04758
0.03727,0.00018,0.06542,-0.00009,-0.00204,-0.04757
0.03727,0.00018,0.05598,-0.00009,-0.00205,-0.04756
0.03727,0.00018,0.04653,-0.00008,-0.00205,-0.04756
0.03727,0.00018,0.03709,-0.00008,-0.00204,-0.04755
0.03727,0.00018,0.02764,-0.00008,-0.00206,-0.04755
0.03727,0.00018,0.01820,-0.00007,-0.00204,-0.04754
0.03727,0.00018,0.00875,-0.00008,-0.00205,-0.04754
0.03727,0.00018,-0.00069,-0.00008,-0.00205,-0.04754
0.03727,0.00018,-0.01013,-0.00009,-0.00205,-0.04755
0.03727,0.00018,-0.01958,-0.00008,-0.00204,-0.04755
0.03727,0.00018,-0.02902,-0.00009,-0.00204,-0.04755
0.03727,0.00018,-0.03847,-0.00010,-0.00204,-0.04756
0.03727,0.00018,-0.04791,-0.00010,-0.00203,-0.04757
0.03727,0.00018,-0.05736,-0.00011,-0.00203,-0.04758
0.03727,0.00018,-0.06680,-0.00012,-0.00202,-0.04760
0.03727,0.00018,-0.07625,-0.00014,-0.00202,-0.04763
0.04671,0.00018,-0.06680,-0.00013,-0.00203,-0.04762
0.04671,0.00018,-0.05736,-0.00012,-0.00203,-0.04759
0.04671,0.00018,-0.04791,-0.00012,-0.00204,-0.04758
0.04671,0.00018,-0.03847,-0.00011,-0.00204,-0.04756
0.04671,0.00018,-0.02902,-0.00010,-0.00204,-0.04755
0.04671,0.00018,-0.01958,-0.00010,-0.00204,-0.04755
0.04671,0.00018,-0.01013,-0.00009,-0.00204,-0.04754
0.04671,0.00018,-0.00069,-0.00009,-0.00205,-0.04754
0.04671,0.00018,0.00875,-0.00008,-0.00205,-0.04754
0.04671,0.00018,0.01820,-0.00007,-0.00205,-0.04754
0.04671,0.00018,0.02764,-0.00008,-0.00205,-0.04754
0.04671,0.00018,0.03709,-0.00008,-0.00204,-0.04755
0.04671,0.00018,0.04653,-0.00008,-0.00204,-0.04756
0.04671,0.00018,0.05598,-0.00009,-0.00204,-0.04756
0.04671,0.00018,0.06542,-0.00008,-0.00205,-0.04758
0.05616,0.00018,0.05598,-0.00007,-0.00205,-0.04757
0.05616,0.00018,0.04653,-0.00008,-0.00205,-0.04756
0.05616,0.00018,0.03709,-0.00008,-0.00204,-0.04756
0.05616,0.00018,0.02764,-0.00008,-0.00205,-0.04755
0.05616,0.00018,0.01820,-0.00009,-0.00204,-0.04754
0.05616,0.00018,0.00875,-0.00008,-0.00204,-0.04754
0.05616,0.00018,-0.00069,-0.00008,-0.00205,-0.04754
0.05616,0.00018,-0.01013,-0.00010,-0.00205,-0.04753
0.05616,0.00018,-0.01958,-0.00009,-0.00205,-0.04753
0.05616,0.00018,-0.02902,-0.00010,-0.00204,-0.04754
0.05616,0.00018,-0.03847,-0.00011,-0.00204,-0.04755
0.05616,0.00018,-0.04791,-0.00012,-0.00203,-0.04756
0.05616,0.00018,-0.05736,-0.00014,-0.00203,-0.04756
0.06560,0.00018,-0.04791,-0.00013,-0.00203,-0.04756
0.06560,0.00018,-0.03847,-0.00012,-0.00204,-0.04754
0.06560,0.00018,-0.02902,-0.00011,-0.00205,-0.04753
0.06560,0.00018,-0.01958,-0.00009,-0.00204,-0.04753
0.06560,0.00018,-0.01013,-0.00009,-0.00204,-0.04753
0.06560,0.00018,-0.00069,-0.00009,-0.00205,-0.04753
0.06560,0.00018,0.00875,-0.00009,-0.00205,-0.04753
0.06560,0.00018,0.01820,-0.00009,-0.00205,-0.04753
0.06560,0.00018,0.02764,-0.00007,-0.00205,-0.04754
0.06560,0.00018,0.03709,-0.00008,-0.00205,-0.04755
0.06560,0.00018,0.04653,-0.00008,-0.00205,-0.04756
0.07505,0.00018,0.03709,-0.00007,-0.00205,-0.04755
0.07505,0.00018,0.02764,-0.00007,-0.00206,-0.04755
0.07505,0.00018,0.01820,-0.00008,-0.00205,-0.04753
0.07505,0.00018,0.00875,-0.00008,-0.00205,-0.04753
0.07505,0.00018,-0.00069,-0.00009,-0.00205,-0.04753
0.07505,0.00018,-0.01013,-0.00009,-0.00205,-0.04752
0.07505,0.00018,-0.01958,-0.00010,-0.00205,-0.04752
0.07505,0.00018,-0.02902,-0.00009,-0.00205,-0.04753
0.07505,0.00018,-0.03847,-0.00011,-0.00204,-0.04753
0.08449,0.00018,-0.00069,-0.00010,-0.00205,-0.04753
0.07505,0.00962,-0.02902,-0.00010,-0.00205,-0.04752
0.07505,0.00962,-0.01958,-0.00010,-0.00205,-0.04752
0.07505,0.00962,-0.01013,-0.00010,-0.00205,-0.04753
0.07505,0.00962,-0.00069,-0.00009,-0.00205,-0.04753
0.07505,0.00962,0.00875,-0.00009,-0.00205,-0.04753
0.07505,0.00962,0.01820,-0.00008,-0.00205,-0.04753
0.07505,0.00962,0.02764,-0.00008,-0.00205,-0.04754
0.07505,0.00962,0.03709,-0.00008,-0.00204,-0.04755
0.06560,0.00962,0.04653,-0.00007,-0.00205,-0.04755
0.06560,0.00962,0.03709,-0.00007,-0.00204,-0.04756
0.06560,0.00962,0.02764,-0.00007,-0.00204,-0.04755
0.06560,0.00962,0.01820,-0.00008,-0.00204,-0.04754
0.06560,0.00962,0.00875,-0.00008,-0.00204,-0.04754
0.06560,0.00962,-0.00069,-0.00008,-0.00205,-0.04754
0.06560,0.00962,-0.01013,-0.00008,-0.00205,-0.04753
0.06560,0.00962,-0.01958,-0.00010,-0.00204,-0.04753
0.06560,0.00962,-0.02902,-0.00010,-0.00204,-0.04754
0.06560,0.00962,-0.03847,-0.00011,-0.00205,-0.04754
0.06560,0.00962,-0.04791,-0.00012,-0.00204,-0.04754
0.05616,0.00962,-0.05736,-0.00014,-0.00203,-0.04756
0.05616,0.00962,-0.04791,-0.00012,-0.00204,-0.04757
0.05616,0.00962,-0.03847,-0.00011,-0.00204,-0.04755
0.05616,0.00962,-0.02902,-0.00010,-0.00205,-0.04755
0.05616,0.00962,-0.01958,-0.00010,-0.00204,-0.04754
0.05616,0.00962,-0.01013,-0.00010,-0.00206,-0.04754
0.05616,0.00962,-0.00069,-0.00009,-0.00206,-0.04754
0.05616,0.00962,0.00875,-0.00009,-0.00205,-0.04753
0.05616,0.00962,0.01820,-0.00009,-0.00205,-0.04755
0.05616,0.00962,0.02764,-0.00008,-0.00205,-0.04755
0.05616,0.00962,0.03709,-0.00009,-0.00205,-0.04755
0.05616,0.00962,0.04653,-0.00009,-0.00204,-0.04756
0.05616,0.00962,0.05598,-0.00008,-0.00204,-0.04756
0.04671,0.00962,0.06542,-0.00010,-0.00204,-0.04758
0.04671,0.00962,0.05598,-0.00007,-0.00204,-0.04757
0.04671,0.00962,0.04653,-0.00009,-0.00204,-0.04756
0.04671,0.00962,0.03709,-0.00008,-0.00205,-0.04756
0.04671,0.00962,0.02764,-0.00008,-0.00205,-0.04755
0.04671,0.00962,0.01820,-0.00009,-0.00205,-0.04754
0.04671,0.00962,0.00875,-0.00008,-0.00204,-0.04754
0.04671,0.00962,-0.00069,-0.00008,-0.00205,-0.04754
0.04671,0.00962,-0.01013,-0.00008,-0.00205,-0.04755
0.04671,0.00962,-0.01958,-0.00008,-0.00204,-0.04755
0.04671,0.00962,-0.02902,-0.00010,-0.00204,-0.04755
0.04671,0.00962,-0.03847,-0.00012,-0.00204,-0.04756
0.04671,0.00962,-0.04791,-0.00011,-0.00204,-0.04757
0.04671,0.00962,-0.05736,-0.00014,-0.00203,-0.04758
0.04671,0.00962,-0.06680,-0.00014,-0.00203,-0.04760
0.03727,0.00962,-0.06680,-0.00011,-0.00202,-0.04761
0.03727,0.00962,-0.05736,-0.00012,-0.00204,-0.04760
0.03727,0.00962,-0.04791,-0.00011,-0.00204,-0.04759
0.03727,0.00962,-0.03847,-0.00010,-0.00204,-0.04757
0.03727,0.00962,-0.02902,-0.00010,-0.00204,-0.04756
0.03727,0.00962,-0.01958,-0.00010,-0.00204,-0.04755
0.03727,0.00962,-0.01013,-0.00009,-0.00205,-0.04755
0.03727,0.00962,-0.00069,-0.00009,-0.00205,-0.04755
0.03727,0.00962,0.00875,-0.00008,-0.00204,-0.04754
0.03727,0.00962,0.01820,-0.00009,-0.00205,-0.04754
0.03727,0.00962,0.02764,-0.00008,-0.00204,-0.04755
0.03727,0.00962,0.03709,-0.00007,-0.00205,-0.04755
0.03727,0.00962,0.04653,-0.00009,-0.00204,-0.04756
0.03727,0.00962,0.05598,-0.00009,-0.00204,-0.04756
0.03727,0.00962,0.06542,-0.00009,-0.00203,-0.04757
0.03727,0.00962,0.07487,-0.00010,-0.00204,-0.04758
0.02782,0.00962,0.07487,-0.00010,-0.00204,-0.04757
0.02782,0.00962,0.06542,-0.00010,-0.00203,-0.04757
0.02782,0.00962,0.05598,-0.00009,-0.00203,-0.04756
0.02782,0.00962,0.04653,-0.00008,-0.00204,-0.04755
0.02782,0.00962,0.03709,-0.00009,-0.00205,-0.04755
0.02782,0.00962,0.02764,-0.00008,-0.00205,-0.04755
0.02782,0.00962,0.01820,-0.00007,-0.00204,-0.04755
0.02782,0.00962,0.00875,-0.00009,-0.00205,-0.04754
0.02782,0.00962,-0.00069,-0.00007,-0.00205,-0.04754
0.02782,0.00962,-0.01013,-0.00009,-0.00205,-0.04755
0.02782,0.00962,-0.01958,-0.00008,-0.00204,-0.04756
0.02782,0.00962,-0.02902,-0.00009,-0.00205,-0.04756
0.02782,0.00962,-0.03847,-0.00009,-0.00203,-0.04757
0.02782,0.00962,-0.04791,-0.00010,-0.00204,-0.04758
0.02782,0.00962,-0.05736,-0.00010,-0.00203,-0.04760
0.02782,0.00962,-0.06680,-0.00010,-0.00204,-0.04762
0.02782,0.00962,-0.07625,-0.00011,-0.00202,-0.04764
0.01838,0.00962,-0.07625,-0.00010,-0.00202,-0.04765
0.01838,0.00962,-0.06680,-0.00009,-0.00202,-0.04764
0.01838,0.00962,-0.05736,-0.00009,-0.00203,-0.04762
0.01838,0.00962,-0.04791,-0.00009,-0.00203,-0.04760
0.01838,0.00962,-0.03847,-0.00009,-0.00203,-0.04759
0.01838,0.00962,-0.02902,-0.00009,-0.00204,-0.04757
0.01838,0.00962,-0.01958,-0.00008,-0.00204,-0.04756
0.01838,0.00962,-0.01013,-0.00009,-0.00204,-0.04755
0.01838,0.00962,-0.00069,-0.00008,-0.00204,-0.04755
0.01838,0.00962,0.00875,-0.00009,-0.00204,-0.04755
0.01838,0.00962,0.01820,-0.00008,-0.00204,-0.04754
0.01838,0.00962,0.02764,-0.00008,-0.00204,-0.04755
0.01838,0.00962,0.03709,-0.00008,-0.00204,-0.04754
0.01838,0.00962,0.04653,-0.00009,-0.00203,-0.04755
0.01838,0.00962,0.05598,-0.00008,-0.00203,-0.04755
0.01838,0.00962,0.06542,-0.00009,-0.00203,-0.04756
0.01838,0.00962,0.07487,-0.00010,-0.00203,-0.04757
0.00893,0.00962,0.07487,-0.00009,-0.00203,-0.04756
0.00893,0.00962,0.06542,-0.00010,-0.00202,-0.04756
0.00893,0.00962,0.05598,-0.00009,-0.00203,-0.04756
0.00893,0.00962,0.04653,-0.00008,-0.00203,-0.04755
0.00893,0.00962,0.03709,-0.00008,-0.00203,-0.04755
0.00893,0.00962,0.02764,-0.00007,-0.00204,-0.04755
0.00893,0.00962,0.01820,-0.00008,-0.00204,-0.04755
0.00893,0.00962,0.00875,-0.00007,-0.00204,-0.04754
0.00893,0.00962,-0.00069,-0.00008,-0.00204,-0.04755
0.00893,0.00962,-0.01013,-0.00008,-0.00204,-0.04755
0.00893,0.00962,-0.01958,0.00000,0.00000,0.00000
0.00893,0.00962,-0.02902,-0.00008,-0.00204,-0.04757
0.00893,0.00962,-0.03847,-0.00007,-0.00204,-0.04758
0.00893,0.00962,-0.04791,-0.00007,-0.00203,-0.04759
0.00893,0.00962,-0.05736,-0.00007,-0.00204,-0.04761
0.00893,0.00962,-0.06680,-0.00007,-0.00202,-0.04763
0.00893,0.00962,-0.07625,-0.00008,-0.00203,-0.04764
-0.00051,0.00962,-0.07625,-0.00006,-0.00201,-0.04766
-0.00051,0.00962,-0.06680,-0.00007,-0.00203,-0.04765
-0.00051,0.00962,-0.05736,-0.00005,-0.00204,-0.04763
-0.00051,0.00962,-0.04791,-0.00006,-0.00203,-0.04760
-0.00051,0.00962,-0.03847,-0.00007,-0.00204,-0.04759
-0.00051,0.00962,-0.02902,-0.00006,-0.00204,-0.04757
-0.00051,0.00962,-0.01958,-0.00006,-0.00205,-0.04756
-0.00051,0.00962,-0.01013,-0.00007,-0.00204,-0.04755
-0.00051,0.00962,-0.00069,-0.00007,-0.00204,-0.04755
-0.00051,0.00962,0.00875,-0.00007,-0.00204,-0.04754
-0.00051,0.00962,0.01820,-0.00008,-0.00204,-0.04754
-0.00051,0.00962,0.02764,-0.00007,-0.00203,-0.04754
-0.00051,0.00962,0.03709,-0.00008,-0.00203,-0.04754
-0.00051,0.00962,0.04653,-0.00008,-0.00202,-0.04755
-0.00051,0.00962,0.05598,-0.00009,-0.00202,-0.04755
-0.00051,0.00962,0.06542,-0.00009,-0.00202,-0.04755
-0.00051,0.00962,0.07487,-0.00009,-0.00202,-0.04756
-0.00995,0.00962,0.07487,-0.00009,-0.00202,-0.04756
-0.00995,0.00962,0.06542,-0.00009,-0.00202,-0.04755
-0.00995,0.00962,0.05598,-0.00008,-0.00202,-0.04755
-0.00995,0.00962,0.04653,-0.00008,-0.00202,-0.04754
-0.00995,0.00962,0.03709,-0.00006,-0.00204,-0.04754
-0.00995,0.00962,0.02764,-0.00007,-0.00204,-0.04753
-0.00995,0.00962,0.01820,-0.00006,-0.00204,-0.04754
-0.00995,0.00962,0.00875,-0.00006,-0.00203,-0.04753
-0.00995,0.00962,-0.00069,-0.00006,-0.00203,-0.04754
-0.00995,0.00962,-0.01013,-0.00005,-0.00203,-0.04755
-0.00995,0.00962,-0.01958,-0.00005,-0.00204,-0.04755
-0.00995,0.00962,-0.02902,-0.00004,-0.00204,-0.04757
-0.00995,0.00962,-0.03847,-0.00004,-0.00204,-0.04758
-0.00995,0.00962,-0.04791,-0.00004,-0.00203,-0.04759
-0.00995,0.00962,-0.05736,-0.00004,-0.00202,-0.04761
-0.00995,0.00962,-0.06680,-0.00004,-0.00202,-0.04763
-0.00995,0.00962,-0.07625,-0.00004,-0.00202,-0.04765
-0.01940,0.00962,-0.07625,-0.00003,-0.00202,-0.04767
-0.01940,0.00962,-0.06680,-0.00001,-0.00204,-0.04764
-0.01940,0.00962,-0.05736,-0.00002,-0.00202,-0.04762
-0.01940,0.00962,-0.04791,-0.00003,-0.00202,-0.04760
-0.01940,0.00962,-0.03847,-0.00004,-0.00203,-0.04758
-0.01940,0.00962,-0.02902,-0.00004,-0.00205,-0.04757
-0.01940,0.00962,-0.01958,-0.00005,-0.00203,-0.04756
-0.01940,0.00962,-0.01013,-0.00005,-0.00203,-0.04755
-0.01940,0.00962,-0.00069,-0.00006,-0.00204,-0.04754
-0.01940,0.00962,0.00875,-0.00007,-0.00203,-0.04754
-0.01940,0.00962,0.01820,-0.00007,-0.00204,-0.04753
-0.01940,0.00962,0.02764,-0.00006,-0.00202,-0.04754
-0.01940,0.00962,0.03709,-0.00008,-0.00203,-0.04753
-0.01940,0.00962,0.04653,-0.00009,-0.00202,-0.04754
-0.01940,0.00962,0.05598,-0.00009,-0.00202,-0.04754
-0.01940,0.00962,0.06542,-0.00010,-0.00201,-0.04755
-0.01940,0.00962,0.07487,-0.00008,-0.00201,-0.04755
-0.02884,0.00962,0.07487,-0.00009,-0.00200,-0.04755
-0.02884,0.00962,0.06542,-0.00007,-0.00201,-0.04755
-0.02884,0.00962,0.05598,-0.00008,-0.00201,-0.04754
-0.02884,0.00962,0.04653,-0.00008,-0.00201,-0.04754
-0.02884,0.00962,0.03709,-0.00007,-0.00203,-0.04753
-0.02884,0.00962,0.02764,-0.00006,-0.00202,-0.04753
-0.02884,0.00962,0.01820,-0.00006,-0.00204,-0.04753
-0.02884,0.00962,0.00875,-0.00005,-0.00203,-0.04753
-0.02884,0.00962,-0.00069,-0.00004,-0.00203,-0.04753
-0.02884,0.00962,-0.01013,-0.00005,-0.00203,-0.04753
-0.02884,0.00962,-0.01958,-0.00003,-0.00203,-0.04755
-0.02884,0.00962,-0.02902,-0.00003,-0.00203,-0.04755
-0.02884,0.00962,-0.03847,-0.00001,-0.00204,-0.04757
-0.02884,0.00962,-0.04791,-0.00002,-0.00203,-0.04758
-0.02884,0.00962,-0.05736,0.00000,-0.00203,-0.04760
-0.02884,0.00962,-0.06680,0.00001,-0.00203,-0.04762
-0.02884,0.00962,-0.07625,0.00000,-0.00202,-0.04766
-0.03829,0.00962,-0.06680,-0.00000,-0.00202,-0.04764
-0.03829,0.00962,-0.05736,0.00003,-0.00204,-0.04760
-0.03829,0.00962,-0.04791,0.00000,-0.00202,-0.04759
-0.03829,0.00962,-0.03847,-0.00000,-0.00202,-0.04757
-0.03829,0.00962,-0.02902,-0.00001,-0.00203,-0.04756
-0.03829,0.00962,-0.01958,-0.00002,-0.00203,-0.04755
-0.03829,0.00962,-0.01013,-0.00003,-0.00203,-0.04753
-0.03829,0.00962,-0.00069,-0.00004,-0.00202,-0.04753
-0.03829,0.00962,0.00875,-0.00005,-0.00202,-0.04753
-0.03829,0.00962,0.01820,-0.00005,-0.00202,-0.04752
-0.03829,0.00962,0.02764,-0.00006,-0.00202,-0.04752
-0.03829,0.00962,0.03709,-0.00007,-0.00202,-0.04753
-0.03829,0.00962,0.04653,-0.00007,-0.00202,-0.04753
-0.03829,0.00962,0.05598,-0.00009,-0.00201,-0.04753
-0.03829,0.00962,0.06542,-0.00009,-0.00202,-0.04754
-0.03829,0.00962,0.07487,-0.00008,-0.00201,-0.04755
-0.04773,0.00962,0.06542,-0.00007,-0.00201,-0.04755
-0.04773,0.00962,0.05598,-0.00007,-0.00201,-0.04754
-0.04773,0.00962,0.04653,-0.00007,-0.00200,-0.04753
-0.04773,0.00962,0.03709,-0.00007,-0.00201,-0.04752
-0.04773,0.00962,0.02764,-0.00006,-0.00202,-0.04752
-0.04773,0.00962,0.01820,-0.00005,-0.00202,-0.04752
-0.04773,0.00962,0.00875,-0.00004,-0.00202,-0.04751
-0.04773,0.00962,-0.00069,-0.00004,-0.00203,-0.04752
-0.04773,0.00962,-0.01013,-0.00003,-0.00203,-0.04752
-0.04773,0.00962,-0.01958,-0.00001,-0.00204,-0.04753
-0.04773,0.00962,-0.02902,0.00000,-0.00203,-0.04754
-0.04773,0.00962,-0.03847,0.00001,-0.00203,-0.04755
-0.04773,0.00962,-0.04791,0.00003,-0.00203,-0.04756
-0.04773,0.00962,-0.05736,0.00005,-0.00203,-0.04758
-0.04773,0.00962,-0.06680,0.00006,-0.00203,-0.04760
-0.05718,0.00962,-0.05736,0.00003,-0.00204,-0.04759
-0.05718,0.00962,-0.04791,0.00005,-0.00202,-0.04756
-0.05718,0.00962,-0.03847,0.00003,-0.00202,-0.04754
-0.05718,0.00962,-0.02902,0.00001,-0.00203,-0.04753
-0.05718,0.00962,-0.01958,-0.00001,-0.00203,-0.04752
-0.05718,0.00962,-0.01013,-0.00001,-0.00202,-0.04751
-0.05718,0.00962,-0.00069,-0.00003,-0.00202,-0.04751
-0.05718,0.00962,0.00875,-0.00004,-0.00202,-0.04751
-0.05718,0.00962,0.01820,-0.00004,-0.00202,-0.04751
-0.05718,0.00962,0.02764,-0.00006,-0.00201,-0.04751
-0.05718,0.00962,0.03709,-0.00007,-0.00201,-0.04752
-0.05718,0.00962,0.04653,-0.00007,-0.00200,-0.04752
-0.05718,0.00962,0.05598,-0.00007,-0.00200,-0.04753
-0.06662,0.00962,0.04653,-0.00008,-0.00201,-0.04752
-0.06662,0.00962,0.03709,-0.00006,-0.00200,-0.04751
-0.06662,0.00962,0.02764,-0.00005,-0.00202,-0.04751
-0.06662,0.00962,0.01820,-0.00005,-0.00201,-0.04750
-0.06662,0.00962,0.00875,-0.00003,-0.00202,-0.04750
-0.06662,0.00962,-0.00069,-0.00002,-0.00202,-0.04750
-0.06662,0.00962,-0.01013,-0.00000,-0.00202,-0.04750
-0.06662,0.00962,-0.01958,0.00001,-0.00203,-0.04751
-0.06662,0.00962,-0.02902,0.00002,-0.00202,-0.04751
-0.06662,0.00962,-0.03847,0.00003,-0.00203,-0.04752
-0.06662,0.00962,-0.04791,0.00005,-0.00203,-0.04754
-0.07607,0.00962,-0.02902,0.00002,-0.00202,-0.04752
-0.07607,0.00962,-0.01958,0.00000,-0.00203,-0.04749
-0.07607,0.00962,-0.01013,-0.00000,-0.00202,-0.04749
-0.07607,0.00962,-0.00069,-0.00002,-0.00202,-0.04749
-0.07607,0.00962,0.00875,-0.00003,-0.00201,-0.04749
-0.07607,0.00962,0.01820,-0.00005,-0.00201,-0.04749
-0.07607,0.00962,0.02764,-0.00006,-0.00201,-0.04749
-0.07607,0.01907,0.02764,-0.00005,-0.00200,-0.04749
-0.07607,0.01907,0.01820,-0.00005,-0.00202,-0.04749
-0.07607,0.01907,0.00875,-0.00004,-0.00201,-0.04749
-0.07607,0.01907,-0.00069,-0.00002,-0.00202,-0.04749
-0.07607,0.01907,-0.01013,-0.00001,-0.00202,-0.04749
-0.07607,0.01907,-0.01958,-0.00000,-0.00203,-0.04749
-0.07607,0.01907,-0.02902,0.00002,-0.00203,-0.04750
-0.06662,0.01907,-0.04791,0.00005,-0.00204,-0.04751
-0.06662,0.01907,-0.03847,0.00003,-0.00204,-0.04753
-0.06662,0.01907,-0.02902,0.00002,-0.00203,-0.04752
-0.06662,0.01907,-0.01958,-0.00001,-0.00203,-0.04751
-0.06662,0.01907,-0.01013,-0.00003,-0.00202,-0.04750
-0.06662,0.01907,-0.00069,-0.00002,-0.00202,-0.04750
-0.06662,0.01907,0.00875,-0.00004,-0.00202,-0.04750
-0.06662,0.01907,0.01820,-0.00005,-0.00201,-0.04750
-0.06662,0.01907,0.02764,-0.00006,-0.00200,-0.04750
-0.06662,0.01907,0.03709,-0.00007,-0.00201,-0.04750
-0.06662,0.01907,0.04653,-0.00009,-0.00200,-0.04751
-0.05718,0.01907,0.05598,-0.00008,-0.00199,-0.04752
-0.05718,0.01907,0.04653,-0.00008,-0.00200,-0.04752
-0.05718,0.01907,0.03709,-0.00007,-0.00202,-0.04752
-0.05718,0.01907,0.02764,-0.00006,-0.00201,-0.04751
-0.05718,0.01907,0.01820,-0.00005,-0.00202,-0.04751
-0.05718,0.01907,0.00875,-0.00004,-0.00203,-0.04751
-0.05718,0.01907,-0.00069,-0.00003,-0.00202,-0.04751
-0.05718,0.01907,-0.01013,-0.00003,-0.00203,-0.04750
-0.05718,0.01907,-0.01958,-0.00002,-0.00202,-0.04752
-0.05718,0.01907,-0.02902,0.00000,-0.00203,-0.04752
-0.05718,0.01907,-0.03847,0.00002,-0.00203,-0.04754
-0.05718,0.01907,-0.04791,0.00005,-0.00202,-0.04755
-0.05718,0.01907,-0.05736,0.00006,-0.00204,-0.04757
-0.04773,0.01907,-0.06680,0.00007,-0.00203,-0.04759
-0.04773,0.01907,-0.05736,0.00003,-0.00204,-0.04760
-0.04773,0.01907,-0.04791,0.00002,-0.00204,-0.04758
-0.04773,0.01907,-0.03847,-0.00000,-0.00203,-0.04756
-0.04773,0.01907,-0.02902,-0.00002,-0.00203,-0.04754
-0.04773,0.01907,-0.01958,-0.00003,-0.00203,-0.04754
-0.04773,0.01907,-0.01013,-0.00003,-0.00202,-0.04752
-0.04773,0.01907,-0.00069,-0.00004,-0.00202,-0.04752
-0.04773,0.01907,0.00875,-0.00006,-0.00201,-0.04752
-0.04773,0.01907,0.01820,-0.00006,-0.00202,-0.04752
-0.04773,0.01907,0.02764,-0.00007,-0.00202,-0.04751
-0.04773,0.01907,0.03709,-0.00008,-0.00201,-0.04752
-0.04773,0.01907,0.04653,-0.00010,-0.00200,-0.04752
-0.04773,0.01907,0.05598,-0.00009,-0.00201,-0.04753
-0.04773,0.01907,0.06542,-0.00009,-0.00200,-0.04754
-0.03829,0.01907,0.06542,-0.00010,-0.00200,-0.04755
-0.03829,0.01907,0.05598,-0.00008,-0.00200,-0.04754
-0.03829,0.01907,0.04653,-0.00008,-0.00201,-0.04753
-0.03829,0.01907,0.03709,-0.00008,-0.00202,-0.04753
-0.03829,0.01907,0.02764,-0.00006,-0.00201,-0.04752
-0.03829,0.01907,0.01820,-0.00006,-0.00203,-0.04752
-0.03829,0.01907,0.00875,-0.00007,-0.00203,-0.04753
-0.03829,0.01907,-0.00069,-0.00005,-0.00203,-0.04753
-0.03829,0.01907,-0.01013,-0.00004,-0.00203,-0.04753
-0.03829,0.01907,-0.01958,0.00000,0.00000,0.00000
-0.03829,0.01907,-0.02902,-0.00002,-0.00204,-0.04755
-0.03829,0.01907,-0.03847,-0.00000,-0.00203,-0.04756
-0.03829,0.01907,-0.04791,0.00000,-0.00202,-0.04757
-0.03829,0.01907,-0.05736,0.00000,0.00000,0.00000
-0.03829,0.01907,-0.06680,0.00003,-0.00204,-0.04762
-0.02884,0.01907,-0.07625,0.00004,-0.00204,-0.04765
-0.02884,0.01907,-0.06680,-0.00000,-0.00202,-0.04765
-0.02884,0.01907,-0.05736,-0.00001,-0.00203,-0.04762
-0.02884,0.01907,-0.04791,-0.00002,-0.00202,-0.04760
-0.02884,0.01907,-0.03847,-0.00003,-0.00203,-0.04758
-0.02884,0.01907,-0.02902,-0.00003,-0.00203,-0.04756
-0.02884,0.01907,-0.01958,0.00000,0.00000,0.00000
-0.02884,0.01907,-0.01013,-0.00005,-0.00204,-0.04754
-0.02884,0.01907,-0.00069,-0.00006,-0.00202,-0.04753
-0.02884,0.01907,0.00875,-0.00007,-0.00202,-0.04753
-0.02884,0.01907,0.01820,-0.00006,-0.00202,-0.04753
-0.02884,0.01907,0.02764,-0.00007,-0.00202,-0.04752
-0.02884,0.01907,0.03709,-0.00008,-0.00201,-0.04753
-0.02884,0.01907,0.04653,-0.00009,-0.00202,-0.04753
-0.02884,0.01907,0.05598,-0.00008,-0.00200,-0.04754
-0.02884,0.01907,0.06542,-0.00009,-0.00200,-0.04755
-0.02884,0.01907,0.07487,-0.00009,-0.00201,-0.04755
-0.01940,0.01907,0.07487,-0.00010,-0.00202,-0.04756
-0.01940,0.01907,0.06542,-0.00009,-0.00201,-0.04755
-0.01940,0.01907,0.05598,-0.00009,-0.00202,-0.04755
-0.01940,0.01907,0.04653,-0.00009,-0.00202,-0.04753
-0.01940,0.01907,0.03709,-0.00007,-0.00202,-0.04754
-0.01940,0.01907,0.02764,-0.00009,-0.00203,-0.04753
-0.01940,0.01907,0.01820,-0.00007,-0.00203,-0.04752
-0.01940,0.01907,0.00875,-0.00006,-0.00203,-0.04754
-0.01940,0.01907,-0.00069,-0.00006,-0.00203,-0.04754
-0.01940,0.01907,-0.01013,-0.00006,-0.00203,-0.04755
-0.01940,0.01907,-0.01958,-0.00006,-0.00203,-0.04755
-0.01940,0.01907,-0.02902,-0.00005,-0.00204,-0.04756
-0.01940,0.01907,-0.03847,-0.00003,-0.00203,-0.04757
-0.01940,0.01907,-0.04791,-0.00004,-0.00203,-0.04759
-0.01940,0.01907,-0.05736,-0.00002,-0.00203,-0.04761
-0.01940,0.01907,-0.06680,-0.00002,-0.00203,-0.04763
-0.01940,0.01907,-0.07625,-0.00002,-0.00204,-0.04766
-0.00995,0.01907,-0.07625,-0.00005,-0.00202,-0.04767
-0.00995,0.01907,-0.06680,-0.00005,-0.00202,-0.04766
-0.00995,0.01907,-0.05736,-0.00005,-0.00204,-0.04763
-0.00995,0.01907,-0.04791,-0.00006,-0.00204,-0.04761
-0.00995,0.01907,-0.03847,-0.00006,-0.00204,-0.04759
-0.00995,0.01907,-0.02902,-0.00006,-0.00204,-0.04757
-0.00995,0.01907,-0.01958,-0.00006,-0.00204,-0.04756
-0.00995,0.01907,-0.01013,-0.00007,-0.00204,-0.04755
-0.00995,0.01907,-0.00069,-0.00007,-0.00204,-0.04755
-0.00995,0.01907,0.00875,-0.00007,-0.00202,-0.04754
-0.00995,0.01907,0.01820,-0.00007,-0.00204,-0.04754
-0.00995,0.01907,0.02764,-0.00009,-0.00202,-0.04754
-0.00995,0.01907,0.03709,-0.00008,-0.00202,-0.04754
-0.00995,0.01907,0.04653,-0.00009,-0.00202,-0.04754
-0.00995,0.01907,0.05598,-0.00008,-0.00201,-0.04754
-0.00995,0.01907,0.06542,-0.00010,-0.00202,-0.04755
-0.00995,0.01907,0.07487,-0.00009,-0.00202,-0.04755
-0.00051,0.01907,0.07487,-0.00012,-0.00202,-0.04756
-0.00051,0.01907,0.06542,-0.00009,-0.00202,-0.04756
-0.00051,0.01907,0.05598,-0.00009,-0.00203,-0.04755
-0.00051,0.01907,0.04653,-0.00009,-0.00202,-0.04755
-0.00051,0.01907,0.03709,-0.00009,-0.00202,-0.04754
-0.00051,0.01907,0.02764,-0.00008,-0.00203,-0.04754
-0.00051,0.01907,0.01820,-0.00008,-0.00204,-0.04754
-0.00051,0.01907,0.00875,-0.00007,-0.00204,-0.04754
-0.00051,0.01907,-0.00069,-0.00008,-0.00204,-0.04754
-0.00051,0.01907,-0.01013,-0.00006,-0.00204,-0.04755
-0.00051,0.01907,-0.01958,-0.00007,-0.00204,-0.04756
-0.00051,0.01907,-0.02902,-0.00007,-0.00204,-0.04756
-0.00051,0.01907,-0.03847,-0.00007,-0.00203,-0.04758
-0.00051,0.01907,-0.04791,-0.00006,-0.00203,-0.04760
-0.00051,0.01907,-0.05736,-0.00006,-0.00203,-0.04761
-0.00051,0.01907,-0.06680,-0.00006,-0.00203,-0.04764
-0.00051,0.01907,-0.07625,-0.00006,-0.00202,-0.04766
0.00893,0.01907,-0.07625,-0.00009,-0.00203,-0.04766
0.00893,0.01907,-0.06680,-0.00008,-0.00203,-0.04764
0.00893,0.01907,-0.05736,-0.00008,-0.00203,-0.04763
0.00893,0.01907,-0.04791,-0.00008,-0.00204,-0.04761
0.00893,0.01907,-0.03847,-0.00008,-0.00204,-0.04759
0.00893,0.01907,-0.02902,-0.00008,-0.00204,-0.04758
0.00893,0.01907,-0.01958,-0.00008,-0.00204,-0.04756
0.00893,0.01907,-0.01013,-0.00008,-0.00204,-0.04756
0.00893,0.01907,-0.00069,-0.00008,-0.00204,-0.04755
0.00893,0.01907,0.00875,-0.00008,-0.00204,-0.04755
0.00893,0.01907,0.01820,-0.00009,-0.00203,-0.04754
0.00893,0.01907,0.02764,-0.00008,-0.00204,-0.04754
0.00893,0.01907,0.03709,-0.00009,-0.00204,-0.04754
0.00893,0.01907,0.04653,-0.00010,-0.00202,-0.04755
0.00893,0.01907,0.05598,-0.00009,-0.00203,-0.04755
0.00893,0.01907,0.06542,-0.00011,-0.00202,-0.04756
0.00893,0.01907,0.07487,-0.00011,-0.00202,-0.04756
0.01838,0.01907,0.07487,-0.00011,-0.00202,-0.04757
0.01838,0.01907,0.06542,-0.00010,-0.00202,-0.04756
0.01838,0.01907,0.05598,-0.00009,-0.00204,-0.04756
0.01838,0.01907,0.04653,-0.00010,-0.00204,-0.04755
0.01838,0.01907,0.03709,-0.00009,-0.00204,-0.04755
0.01838,0.01907,0.02764,-0.00007,-0.00204,-0.04754
0.01838,0.01907,0.01820,-0.00008,-0.00203,-0.04754
0.01838,0.01907,0.00875,-0.00008,-0.00204,-0.04755
0.01838,0.01907,-0.00069,-0.00008,-0.00204,-0.04755
0.01838,0.01907,-0.01013,-0.00009,-0.00204,-0.04755
0.01838,0.01907,-0.01958,-0.00008,-0.00204,-0.04756
0.01838,0.01907,-0.02902,-0.00008,-0.00205,-0.04756
0.01838,0.01907,-0.03847,-0.00009,-0.00204,-0.04758
0.01838,0.01907,-0.04791,-0.00010,-0.00204,-0.04759
0.01838,0.01907,-0.05736,-0.00009,-0.00204,-0.04761
0.01838,0.01907,-0.06680,-0.00010,-0.00203,-0.04763
0.01838,0.01907,-0.07625,-0.00010,-0.00204,-0.04765
0.02782,0.01907,-0.07625,0.00000,0.00000,0.00000
0.02782,0.01907,-0.06680,-0.00013,-0.00203,-0.04763
0.02782,0.01907,-0.05736,-0.00011,-0.00204,-0.04762
0.02782,0.01907,-0.04791,-0.00011,-0.00204,-0.04760
0.02782,0.01907,-0.03847,-0.00010,-0.00204,-0.04758
0.02782,0.01907,-0.02902,-0.00010,-0.00204,-0.04757
0.02782,0.01907,-0.01958,-0.00010,-0.00204,-0.04756
0.02782,0.01907,-0.01013,-0.00010,-0.00205,-0.04755
0.02782,0.01907,-0.00069,-0.00009,-0.00205,-0.04755
0.02782,0.01907,0.00875,-0.00008,-0.00204,-0.04754
0.02782,0.01907,0.01820,-0.00009,-0.00205,-0.04754
0.02782,0.01907,0.02764,-0.00009,-0.00203,-0.04754
0.02782,0.01907,0.03709,-0.00009,-0.00204,-0.04754
0.02782,0.01907,0.04653,-0.00010,-0.00203,-0.04755
0.02782,0.01907,0.05598,-0.00010,-0.00203,-0.04755
0.02782,0.01907,0.06542,-0.00010,-0.00204,-0.04756
0.02782,0.01907,0.07487,-0.00012,-0.00203,-0.04757
0.03727,0.01907,0.06542,-0.00010,-0.00203,-0.04756
0.03727,0.01907,0.05598,-0.00010,-0.00204,-0.04756
0.03727,0.01907,0.04653,-0.00009,-0.00204,-0.04756
0.03727,0.01907,0.03709,-0.00009,-0.00203,-0.04755
0.03727,0.01907,0.02764,-0.00008,-0.00204,-0.04754
0.03727,0.01907,0.01820,-0.00008,-0.00205,-0.04755
0.03727,0.01907,0.00875,-0.00009,-0.00204,-0.04754
0.03727,0.01907,-0.00069,-0.00009,-0.00206,-0.04754
0.03727,0.01907,-0.01013,-0.00010,-0.00205,-0.04755
0.03727,0.01907,-0.01958,-0.00010,-0.00205,-0.04755
0.03727,0.01907,-0.02902,-0.00010,-0.00205,-0.04756
0.03727,0.01907,-0.03847,-0.00010,-0.00205,-0.04757
0.03727,0.01907,-0.04791,-0.00011,-0.00204,-0.04758
0.03727,0.01907,-0.05736,-0.00013,-0.00205,-0.04760
0.03727,0.01907,-0.06680,-0.00013,-0.00204,-0.04762
0.04671,0.01907,-0.06680,-0.00015,-0.00205,-0.04761
0.04671,0.01907,-0.05736,-0.00015,-0.00204,-0.04759
0.04671,0.01907,-0.04791,-0.00011,-0.00204,-0.04757
0.04671,0.01907,-0.03847,-0.00012,-0.00204,-0.04757
0.04671,0.01907,-0.02902,-0.00010,-0.00205,-0.04756
0.04671,0.01907,-0.01958,-0.00010,-0.00204,-0.04755
0.04671,0.01907,-0.01013,-0.00010,-0.00205,-0.04755
0.04671,0.01907,-0.00069,-0.00009,-0.00205,-0.04754
0.04671,0.01907,0.00875,-0.00009,-0.00205,-0.04754
0.04671,0.01907,0.01820,-0.00010,-0.00204,-0.04754
0.04671,0.01907,0.02764,-0.00008,-0.00204,-0.04754
0.04671,0.01907,0.03709,-0.00009,-0.00204,-0.04754
0.04671,0.01907,0.04653,-0.00009,-0.00203,-0.04756
0.04671,0.01907,0.05598,-0.00009,-0.00203,-0.04756
0.04671,0.01907,0.06542,-0.00010,-0.00203,-0.04757
0.05616,0.01907,0.05598,-0.00009,-0.00203,-0.04757
0.05616,0.01907,0.04653,-0.00008,-0.00204,-0.04756
0.05616,0.01907,0.03709,-0.00009,-0.00204,-0.04756
0.05616,0.01907,0.02764,-0.00009,-0.00204,-0.04755
0.05616,0.01907,0.01820,-0.00009,-0.00205,-0.04754
0.05616,0.01907,0.00875,-0.00009,-0.00205,-0.04754
0.05616,0.01907,-0.00069,-0.00010,-0.00204,-0.04754
0.05616,0.01907,-0.01013,-0.00010,-0.00205,-0.04754
0.05616,0.01907,-0.01958,-0.00010,-0.00206,-0.04754
0.05616,0.01907,-0.02902,-0.00010,-0.00205,-0.04755
0.05616,0.01907,-0.03847,-0.00012,-0.00206,-0.04756
0.05616,0.01907,-0.04791,-0.00012,-0.00204,-0.04756
0.05616,0.01907,-0.05736,-0.00015,-0.00204,-0.04757
0.06560,0.01907,-0.04791,-0.00014,-0.00206,-0.04757
0.06560,0.01907,-0.03847,-0.00012,-0.00204,-0.04755
0.06560,0.01907,-0.02902,-0.00013,-0.00204,-0.04754
0.06560,0.01907,-0.01958,-0.00012,-0.00205,-0.04754
0.06560,0.01907,-0.01013,-0.00010,-0.00206,-0.04753
0.06560,0.01907,-0.00069,-0.00011,-0.00205,-0.04753
0.06560,0.01907,0.00875,-0.00009,-0.00204,-0.04753
0.06560,0.01907,0.01820,-0.00009,-0.00205,-0.04754
0.06560,0.01907,0.02764,-0.00010,-0.00204,-0.04754
0.06560,0.01907,0.03709,-0.00009,-0.00204,-0.04755
0.06560,0.01907,0.04653,-0.00009,-0.00203,-0.04756
0.07505,0.01907,0.02764,-0.00008,-0.00205,-0.04755
0.07505,0.01907,0.01820,-0.00009,-0.00205,-0.04753
0.07505,0.01907,0.00875,-0.00008,-0.00204,-0.04753
0.07505,0.01907,-0.00069,-0.00009,-0.00205,-0.04752
0.07505,0.01907,-0.01013,-0.00010,-0.00205,-0.04753
0.07505,0.01907,-0.01958,-0.00010,-0.00206,-0.04753
0.07505,0.01907,-0.02902,-0.00011,-0.00205,-0.04753
0.07505,0.02851,-0.01958,-0.00011,-0.00205,-0.04753
0.07505,0.02851,-0.01013,-0.00010,-0.00205,-0.04753
0.07505,0.02851,-0.00069,-0.00010,-0.00205,-0.04753
0.07505,0.02851,0.00875,-0.00010,-0.00205,-0.04753
0.07505,0.02851,0.01820,-0.00009,-0.00205,-0.04753
0.06560,0.02851,0.03709,-0.00007,-0.00203,-0.04754
0.06560,0.02851,0.02764,-0.00008,-0.00204,-0.04754
0.06560,0.02851,0.01820,-0.00009,-0.00204,-0.04754
0.06560,0.02851,0.00875,-0.00010,-0.00204,-0.04753
0.06560,0.02851,-0.00069,-0.00010,-0.00205,-0.04753
0.06560,0.02851,-0.01013,-0.00010,-0.00206,-0.04754
0.06560,0.02851,-0.01958,-0.00010,-0.00206,-0.04754
0.06560,0.02851,-0.02902,-0.00012,-0.00206,-0.04754
0.06560,0.02851,-0.03847,-0.00012,-0.00206,-0.04755
0.05616,0.02851,-0.05736,-0.00015,-0.00205,-0.04756
0.05616,0.02851,-0.04791,-0.00013,-0.00205,-0.04758
0.05616,0.02851,-0.03847,-0.00013,-0.00206,-0.04757
0.05616,0.02851,-0.02902,-0.00012,-0.00205,-0.04756
0.05616,0.02851,-0.01958,-0.00011,-0.00206,-0.04755
0.05616,0.02851,-0.01013,-0.00010,-0.00205,-0.04754
0.05616,0.02851,-0.00069,-0.00010,-0.00205,-0.04754
0.05616,0.02851,0.00875,-0.00009,-0.00205,-0.04754
0.05616,0.02851,0.01820,-0.00009,-0.00205,-0.04754
0.05616,0.02851,0.02764,-0.00009,-0.00204,-0.04754
0.05616,0.02851,0.03709,-0.00009,-0.00203,-0.04755
0.05616,0.02851,0.04653,-0.00009,-0.00203,-0.04755
0.05616,0.02851,0.05598,-0.00010,-0.00203,-0.04756
0.04671,0.02851,0.05598,-0.00009,-0.00203,-0.04757
0.04671,0.02851,0.04653,-0.00010,-0.00203,-0.04756
0.04671,0.02851,0.03709,-0.00009,-0.00203,-0.04755
0.04671,0.02851,0.02764,-0.00009,-0.00204,-0.04755
0.04671,0.02851,0.01820,-0.00010,-0.00204,-0.04754
0.04671,0.02851,0.00875,-0.00009,-0.00205,-0.04754
0.04671,0.02851,-0.00069,-0.00010,-0.00205,-0.04754
0.04671,0.02851,-0.01013,-0.00010,-0.00206,-0.04754
0.04671,0.02851,-0.01958,-0.00010,-0.00205,-0.04755
0.04671,0.02851,-0.02902,-0.00010,-0.00205,-0.04756
0.04671,0.02851,-0.03847,-0.00012,-0.00206,-0.04756
0.04671,0.02851,-0.04791,-0.00012,-0.00205,-0.04758
0.04671,0.02851,-0.05736,-0.00014,-0.00205,-0.04759
0.03727,0.02851,-0.06680,-0.00014,-0.00205,-0.04761
0.03727,0.02851,-0.05736,-0.00013,-0.00205,-0.04761
0.03727,0.02851,-0.04791,-0.00012,-0.00204,-0.04760
0.03727,0.02851,-0.03847,-0.00011,-0.00205,-0.04758
0.03727,0.02851,-0.02902,-0.00011,-0.00206,-0.04757
0.03727,0.02851,-0.01958,-0.00011,-0.00206,-0.04756
0.03727,0.02851,-0.01013,-0.00010,-0.00205,-0.04755
0.03727,0.02851,-0.00069,-0.00010,-0.00204,-0.04755
0.03727,0.02851,0.00875,-0.00009,-0.00204,-0.04754
0.03727,0.02851,0.01820,-0.00010,-0.00204,-0.04754
0.03727,0.02851,0.02764,-0.00009,-0.00204,-0.04755
0.03727,0.02851,0.03709,-0.00009,-0.00204,-0.04754
0.03727,0.02851,0.04653,-0.00010,-0.00203,-0.04755
0.03727,0.02851,0.05598,-0.00010,-0.00202,-0.04756
0.03727,0.02851,0.06542,0.00000,0.00000,0.00000
0.02782,0.02851,0.06542,-0.00011,-0.00202,-0.04757
0.02782,0.02851,0.05598,-0.00010,-0.00202,-0.04757
0.02782,0.02851,0.04653,-0.00009,-0.00203,-0.04755
0.02782,0.02851,0.03709,-0.00009,-0.00204,-0.04755
0.02782,0.02851,0.02764,-0.00009,-0.00204,-0.04754
0.02782,0.02851,0.01820,-0.00009,-0.00205,-0.04754
0.02782,0.02851,0.00875,-0.00009,-0.00205,-0.04754
0.02782,0.02851,-0.00069,-0.00009,-0.00205,-0.04755
0.02782,0.02851,-0.01013,-0.00009,-0.00206,-0.04755
0.02782,0.02851,-0.01958,-0.00009,-0.00206,-0.04756
0.02782,0.02851,-0.02902,-0.00010,-0.00206,-0.04756
0.02782,0.02851,-0.03847,-0.00010,-0.00206,-0.04758
0.02782,0.02851,-0.04791,-0.00011,-0.00205,-0.04759
0.02782,0.02851,-0.05736,-0.00011,-0.00204,-0.04761
0.02782,0.02851,-0.06680,-0.00013,-0.00204,-0.04763
0.01838,0.02851,-0.07625,-0.00011,-0.00204,-0.04766
0.01838,0.02851,-0.06680,-0.00010,-0.00205,-0.04765
0.01838,0.02851,-0.05736,-0.00010,-0.00205,-0.04762
0.01838,0.02851,-0.04791,-0.00009,-0.00205,-0.04761
0.01838,0.02851,-0.03847,-0.00009,-0.00204,-0.04759
0.01838,0.02851,-0.02902,-0.00009,-0.00205,-0.04758
0.01838,0.02851,-0.01958,-0.00010,-0.00205,-0.04757
0.01838,0.02851,-0.01013,-0.00009,-0.00205,-0.04756
0.01838,0.02851,-0.00069,-0.00009,-0.00204,-0.04755
0.01838,0.02851,0.00875,-0.00010,-0.00205,-0.04755
0.01838,0.02851,0.01820,-0.00010,-0.00205,-0.04754
0.01838,0.02851,0.02764,-0.00009,-0.00203,-0.04754
0.01838,0.02851,0.03709,-0.00009,-0.00204,-0.04754
0.01838,0.02851,0.04653,-0.00010,-0.00203,-0.04754
0.01838,0.02851,0.05598,-0.00011,-0.00202,-0.04755
0.01838,0.02851,0.06542,-0.00011,-0.00201,-0.04756
0.01838,0.02851,0.07487,-0.00012,-0.00201,-0.04756
0.00893,0.02851,0.07487,-0.00011,-0.00202,-0.04756
0.00893,0.02851,0.06542,-0.00011,-0.00201,-0.04756
0.00893,0.02851,0.05598,-0.00010,-0.00202,-0.04755
0.00893,0.02851,0.04653,-0.00011,-0.00203,-0.04755
0.00893,0.02851,0.03709,-0.00009,-0.00203,-0.04755
0.00893,0.02851,0.02764,-0.00008,-0.00203,-0.04754
0.00893,0.02851,0.01820,-0.00009,-0.00204,-0.04754
0.00893,0.02851,0.00875,-0.00009,-0.00204,-0.04754
0.00893,0.02851,-0.00069,-0.00009,-0.00204,-0.04755
0.00893,0.02851,-0.01013,-0.00008,-0.00205,-0.04755
0.00893,0.02851,-0.01958,-0.00008,-0.00205,-0.04756
0.00893,0.02851,-0.02902,-0.00007,-0.00205,-0.04757
0.00893,0.02851,-0.03847,-0.00007,-0.00205,-0.04759
0.00893,0.02851,-0.04791,-0.00008,-0.00205,-0.04760
0.00893,0.02851,-0.05736,-0.00008,-0.00204,-0.04762
0.00893,0.02851,-0.06680,-0.00007,-0.00205,-0.04764
0.00893,0.02851,-0.07625,-0.00009,-0.00204,-0.04766
-0.00051,0.02851,-0.07625,-0.00007,-0.00204,-0.04767
-0.00051,0.02851,-0.06680,-0.00006,-0.00204,-0.04766
-0.00051,0.02851,-0.05736,-0.00008,-0.00204,-0.04763
-0.00051,0.02851,-0.04791,-0.00007,-0.00204,-0.04761
-0.00051,0.02851,-0.03847,-0.00008,-0.00204,-0.04759
-0.00051,0.02851,-0.02902,-0.00009,-0.00205,-0.04758
-0.00051,0.02851,-0.01958,-0.00008,-0.00206,-0.04756
-0.00051,0.02851,-0.01013,-0.00008,-0.00204,-0.04755
-0.00051,0.02851,-0.00069,-0.00009,-0.00204,-0.04755
-0.00051,0.02851,0.00875,-0.00009,-0.00204,-0.04754
-0.00051,0.02851,0.01820,-0.00010,-0.00203,-0.04754
-0.00051,0.02851,0.02764,-0.00009,-0.00203,-0.04754
-0.00051,0.02851,0.03709,-0.00009,-0.00203,-0.04754
-0.00051,0.02851,0.04653,-0.00010,-0.00201,-0.04754
-0.00051,0.02851,0.05598,-0.00011,-0.00201,-0.04754
-0.00051,0.02851,0.06542,-0.00011,-0.00202,-0.04755
-0.00051,0.02851,0.07487,-0.00011,-0.00201,-0.04755
-0.00995,0.02851,0.07487,-0.00010,-0.00201,-0.04755
-0.00995,0.02851,0.06542,-0.00010,-0.00201,-0.04755
-0.00995,0.02851,0.05598,-0.00009,-0.00201,-0.04755
-0.00995,0.02851,0.04653,-0.00009,-0.00202,-0.04754
-0.00995,0.02851,0.03709,-0.00009,-0.00202,-0.04753
-0.00995,0.02851,0.02764,-0.00009,-0.00202,-0.04753
-0.00995,0.02851,0.01820,-0.00008,-0.00204,-0.04754
-0.00995,0.02851,0.00875,-0.00008,-0.00204,-0.04753
-0.00995,0.02851,-0.00069,-0.00007,-0.00203,-0.04754
-0.00995,0.02851,-0.01013,-0.00007,-0.00204,-0.04755
-0.00995,0.02851,-0.01958,-0.00005,-0.00205,-0.04756
-0.00995,0.02851,-0.02902,-0.00006,-0.00205,-0.04757
-0.00995,0.02851,-0.03847,-0.00006,-0.00204,-0.04758
-0.00995,0.02851,-0.04791,-0.00005,-0.00203,-0.04759
-0.00995,0.02851,-0.05736,-0.00005,-0.00204,-0.04762
-0.00995,0.02851,-0.06680,-0.00005,-0.00204,-0.04764
-0.00995,0.02851,-0.07625,-0.00005,-0.00204,-0.04767
-0.01940,0.02851,-0.07625,-0.00003,-0.00203,-0.04767
-0.01940,0.02851,-0.06680,-0.00002,-0.00204,-0.04765
-0.01940,0.02851,-0.05736,-0.00003,-0.00204,-0.04763
-0.01940,0.02851,-0.04791,-0.00004,-0.00204,-0.04760
-0.01940,0.02851,-0.03847,-0.00004,-0.00204,-0.04758
-0.01940,0.02851,-0.02902,-0.00004,-0.00204,-0.04757
-0.01940,0.02851,-0.01958,-0.00006,-0.00204,-0.04756
-0.01940,0.02851,-0.01013,-0.00007,-0.00204,-0.04755
-0.01940,0.02851,-0.00069,-0.00006,-0.00204,-0.04754
-0.01940,0.02851,0.00875,-0.00009,-0.00204,-0.04754
-0.01940,0.02851,0.01820,-0.00007,-0.00203,-0.04754
-0.01940,0.02851,0.02764,-0.00007,-0.00202,-0.04753
-0.01940,0.02851,0.03709,-0.00009,-0.00202,-0.04753
-0.01940,0.02851,0.04653,-0.00010,-0.00202,-0.04753
-0.01940,0.02851,0.05598,-0.00009,-0.00201,-0.04754
-0.01940,0.02851,0.06542,-0.00009,-0.00200,-0.04754
-0.01940,0.02851,0.07487,-0.00010,-0.00200,-0.04755
-0.02884,0.02851,0.06542,-0.00010,-0.00200,-0.04755
-0.02884,0.02851,0.05598,-0.00009,-0.00200,-0.04754
-0.02884,0.02851,0.04653,-0.00009,-0.00200,-0.04753
-0.02884,0.02851,0.03709,-0.00009,-0.00202,-0.04753
-0.02884,0.02851,0.02764,-0.00007,-0.00202,-0.04752
-0.02884,0.02851,0.01820,-0.00007,-0.00202,-0.04752
-0.02884,0.02851,0.00875,-0.00006,-0.00202,-0.04752
-0.02884,0.02851,-0.00069,-0.00006,-0.00203,-0.04753
-0.02884,0.02851,-0.01013,-0.00006,-0.00203,-0.04753
-0.02884,0.02851,-0.01958,-0.00005,-0.00202,-0.04755
-0.02884,0.02851,-0.02902,-0.00003,-0.00205,-0.04755
-0.02884,0.02851,-0.03847,-0.00003,-0.00203,-0.04757
-0.02884,0.02851,-0.04791,-0.00002,-0.00204,-0.04759
-0.02884,0.02851,-0.05736,-0.00002,-0.00203,-0.04760
-0.02884,0.02851,-0.06680,0.00000,-0.00203,-0.04763
-0.03829,0.02851,-0.06680,0.00002,-0.00204,-0.04763
-0.03829,0.02851,-0.05736,0.00002,-0.00202,-0.04761
-0.03829,0.02851,-0.04791,-0.00000,-0.00203,-0.04759
-0.03829,0.02851,-0.03847,-0.00001,-0.00204,-0.04757
-0.03829,0.02851,-0.02902,-0.00003,-0.00204,-0.04756
-0.03829,0.02851,-0.01958,-0.00004,-0.00204,-0.04754
-0.03829,0.02851,-0.01013,-0.00005,-0.00203,-0.04754
-0.03829,0.02851,-0.00069,-0.00006,-0.00202,-0.04753
-0.03829,0.02851,0.00875,-0.00007,-0.00202,-0.04752
-0.03829,0.02851,0.01820,-0.00007,-0.00201,-0.04752
-0.03829,0.02851,0.02764,-0.00008,-0.00202,-0.04752
-0.03829,0.02851,0.03709,-0.00008,-0.00201,-0.04752
-0.03829,0.02851,0.04653,-0.00009,-0.00200,-0.04752
-0.03829,0.02851,0.05598,-0.00009,-0.00200,-0.04753
-0.03829,0.02851,0.06542,-0.00010,-0.00200,-0.04754
-0.04773,0.02851,0.05598,-0.00010,-0.00199,-0.04754
-0.04773,0.02851,0.04653,-0.00009,-0.00200,-0.04752
-0.04773,0.02851,0.03709,-0.00008,-0.00200,-0.04752
-0.04773,0.02851,0.02764,-0.00007,-0.00201,-0.04752
-0.04773,0.02851,0.01820,-0.00007,-0.00201,-0.04751
-0.04773,0.02851,0.00875,-0.00006,-0.00203,-0.04751
-0.04773,0.02851,-0.00069,-0.00005,-0.00202,-0.04751
-0.04773,0.02851,-0.01013,-0.00004,-0.00203,-0.04752
-0.04773,0.02851,-0.01958,-0.00002,-0.00203,-0.04752
-0.04773,0.02851,-0.02902,-0.00000,-0.00203,-0.04754
-0.04773,0.02851,-0.03847,0.00000,-0.00204,-0.04755
-0.04773,0.02851,-0.04791,0.00001,-0.00202,-0.04756
-0.04773,0.02851,-0.05736,0.00004,-0.00204,-0.04758
-0.05718,0.02851,-0.05736,0.00004,-0.00203,-0.04757
-0.05718,0.02851,-0.04791,0.00004,-0.00202,-0.04756
-0.05718,0.02851,-0.03847,0.00001,-0.00203,-0.04754
-0.05718,0.02851,-0.02902,-0.00001,-0.00203,-0.04754
-0.05718,0.02851,-0.01958,-0.00002,-0.00203,-0.04752
-0.05718,0.02851,-0.01013,-0.00003,-0.00203,-0.04751
-0.05718,0.02851,-0.00069,-0.00005,-0.00202,-0.04750
-0.05718,0.02851,0.00875,-0.00006,-0.00202,-0.04751
-0.05718,0.02851,0.01820,-0.00006,-0.00201,-0.04751
-0.05718,0.02851,0.02764,-0.00008,-0.00200,-0.04750
-0.05718,0.02851,0.03709,-0.00008,-0.00199,-0.04751
-0.05718,0.02851,0.04653,-0.00010,-0.00200,-0.04751
-0.05718,0.02851,0.05598,-0.00009,-0.00199,-0.04752
-0.06662,0.02851,0.03709,-0.00008,-0.00200,-0.04752
-0.06662,0.02851,0.02764,-0.00006,-0.00200,-0.04750
-0.06662,0.02851,0.01820,-0.00005,-0.00201,-0.04749
-0.06662,0.02851,0.00875,-0.00003,-0.00200,-0.04749
-0.06662,0.02851,-0.00069,-0.00002,-0.00201,-0.04749
-0.06662,0.02851,-0.01013,-0.00001,-0.00202,-0.04750
-0.06662,0.02851,-0.01958,0.00000,-0.00203,-0.04750
-0.06662,0.02851,-0.02902,0.00001,-0.00203,-0.04751
-0.06662,0.02851,-0.03847,0.00004,-0.00203,-0.04752
-0.07607,0.02851,-0.01958,0.00000,-0.00203,-0.04751
-0.07607,0.02851,-0.01013,-0.00001,-0.00202,-0.04749
-0.07607,0.02851,-0.00069,-0.00003,-0.00201,-0.04748
-0.07607,0.02851,0.00875,-0.00004,-0.00201,-0.04748
-0.07607,0.02851,0.01820,-0.00004,-0.00200,-0.04749
-0.07607,0.03796,-0.00069,-0.00003,-0.00202,-0.04748
-0.06662,0.03796,-0.02902,0.00000,-0.00202,-0.04748
-0.06662,0.03796,-0.01958,0.00001,-0.00202,-0.04751
-0.06662,0.03796,-0.01013,-0.00003,-0.00202,-0.04750
-0.06662,0.03796,-0.00069,-0.00004,-0.00201,-0.04749
-0.06662,0.03796,0.00875,-0.00005,-0.00200,-0.04749
-0.06662,0.03796,0.01820,-0.00006,-0.00200,-0.04749
-0.06662,0.03796,0.02764,-0.00007,-0.00199,-0.04749
-0.06662,0.03796,0.03709,-0.00009,-0.00198,-0.04749
-0.05718,0.03796,0.04653,-0.00010,-0.00198,-0.04750
-0.05718,0.03796,0.03709,-0.00009,-0.00199,-0.04751
-0.05718,0.03796,0.02764,-0.00008,-0.00200,-0.04751
-0.05718,0.03796,0.01820,-0.00007,-0.00201,-0.04750
-0.05718,0.03796,0.00875,-0.00006,-0.00201,-0.04750
-0.05718,0.03796,-0.00069,-0.00005,-0.00201,-0.04750
-0.05718,0.03796,-0.01013,-0.00004,-0.00203,-0.04751
-0.05718,0.03796,-0.01958,-0.00002,-0.00203,-0.04751
-0.05718,0.03796,-0.02902,-0.00000,-0.00203,-0.04752
-0.05718,0.03796,-0.03847,0.00001,-0.00203,-0.04754
-0.05718,0.03796,-0.04791,0.00003,-0.00204,-0.04754
-0.04773,0.03796,-0.05736,0.00007,-0.00203,-0.04756
-0.04773,0.03796,-0.04791,0.00003,-0.00204,-0.04758
-0.04773,0.03796,-0.03847,-0.00000,-0.00204,-0.04756
-0.04773,0.03796,-0.02902,-0.00001,-0.00203,-0.04754
-0.04773,0.03796,-0.01958,-0.00003,-0.00203,-0.04753
-0.04773,0.03796,-0.01013,-0.00004,-0.00202,-0.04753
-0.04773,0.03796,-0.00069,-0.00006,-0.00202,-0.04752
-0.04773,0.03796,0.00875,-0.00006,-0.00202,-0.04751
-0.04773,0.03796,0.01820,-0.00007,-0.00201,-0.04751
-0.04773,0.03796,0.02764,-0.00007,-0.00200,-0.04751
-0.04773,0.03796,0.03709,-0.00009,-0.00200,-0.04751
-0.04773,0.03796,0.04653,-0.00010,-0.00199,-0.04752
-0.04773,0.03796,0.05598,-0.00010,-0.00199,-0.04753
-0.03829,0.03796,0.06542,-0.00009,-0.00198,-0.04754
-0.03829,0.03796,0.05598,-0.00009,-0.00199,-0.04754
-0.03829,0.03796,0.04653,-0.00010,-0.00199,-0.04752
-0.03829,0.03796,0.03709,-0.00009,-0.00201,-0.04752
-0.03829,0.03796,0.02764,-0.00009,-0.00202,-0.04751
-0.03829,0.03796,0.01820,-0.00006,-0.00202,-0.04752
-0.03829,0.03796,0.00875,-0.00007,-0.00202,-0.04751
-0.03829,0.03796,-0.00069,-0.00006,-0.00202,-0.04752
-0.03829,0.03796,-0.01013,-0.00004,-0.00203,-0.04753
-0.03829,0.03796,-0.01958,-0.00003,-0.00203,-0.04753
-0.03829,0.03796,-0.02902,-0.00002,-0.00203,-0.04755
-0.03829,0.03796,-0.03847,-0.00001,-0.00204,-0.04756
-0.03829,0.03796,-0.04791,-0.00001,-0.00203,-0.04758
-0.03829,0.03796,-0.05736,0.00001,-0.00202,-0.04760
-0.03829,0.03796,-0.06680,0.00003,-0.00204,-0.04762
-0.02884,0.03796,-0.06680,0.00000,-0.00204,-0.04764
-0.02884,0.03796,-0.05736,-0.00001,-0.00204,-0.04763
-0.02884,0.03796,-0.04791,-0.00003,-0.00204,-0.04760
-0.02884,0.03796,-0.03847,-0.00004,-0.00204,-0.04758
-0.02884,0.03796,-0.02902,-0.00005,-0.00204,-0.04757
-0.02884,0.03796,-0.01958,-0.00005,-0.00204,-0.04756
-0.02884,0.03796,-0.01013,-0.00006,-0.00204,-0.04754
-0.02884,0.03796,-0.00069,-0.00006,-0.00203,-0.04753
-0.02884,0.03796,0.00875,-0.00008,-0.00202,-0.04753
-0.02884,0.03796,0.01820,-0.00008,-0.00202,-0.04752
-0.02884,0.03796,0.02764,-0.00008,-0.00201,-0.04752
-0.02884,0.03796,0.03709,-0.00010,-0.00200,-0.04752
-0.02884,0.03796,0.04653,-0.00009,-0.00200,-0.04752
-0.02884,0.03796,0.05598,-0.00011,-0.00200,-0.04753
-0.02884,0.03796,0.06542,-0.00011,-0.00199,-0.04754
-0.01940,0.03796,0.06542,-0.00009,-0.00199,-0.04755
-0.01940,0.03796,0.05598,-0.00010,-0.00200,-0.04754
-0.01940,0.03796,0.04653,-0.00010,-0.00200,-0.04753
-0.01940,0.03796,0.03709,-0.00009,-0.00201,-0.04753
-0.01940,0.03796,0.02764,-0.00009,-0.00202,-0.04753
-0.01940,0.03796,0.01820,-0.00008,-0.00203,-0.04752
-0.01940,0.03796,0.00875,-0.00008,-0.00203,-0.04753
-0.01940,0.03796,-0.00069,-0.00007,-0.00204,-0.04754
-0.01940,0.03796,-0.01013,-0.00006,-0.00204,-0.04754
-0.01940,0.03796,-0.01958,-0.00006,-0.00204,-0.04755
-0.01940,0.03796,-0.02902,-0.00006,-0.00204,-0.04756
-0.01940,0.03796,-0.03847,-0.00005,-0.00205,-0.04758
-0.01940,0.03796,-0.04791,-0.00005,-0.00204,-0.04759
-0.01940,0.03796,-0.05736,-0.00003,-0.00204,-0.04761
-0.01940,0.03796,-0.06680,-0.00003,-0.00205,-0.04764
-0.00995,0.03796,-0.06680,-0.00006,-0.00204,-0.04765
-0.00995,0.03796,-0.05736,-0.00005,-0.00205,-0.04764
-0.00995,0.03796,-0.04791,-0.00007,-0.00205,-0.04761
-0.00995,0.03796,-0.03847,-0.00007,-0.00204,-0.04760
-0.00995,0.03796,-0.02902,-0.00007,-0.00205,-0.04758
-0.00995,0.03796,-0.01958,-0.00007,-0.00204,-0.04756
-0.00995,0.03796,-0.01013,-0.00008,-0.00204,-0.04756
-0.00995,0.03796,-0.00069,-0.00009,-0.00204,-0.04754
-0.00995,0.03796,0.00875,-0.00009,-0.00204,-0.04753
-0.00995,0.03796,0.01820,-0.00009,-0.00202,-0.04753
-0.00995,0.03796,0.02764,-0.00010,-0.00203,-0.04753
-0.00995,0.03796,0.03709,-0.00010,-0.00202,-0.04753
-0.00995,0.03796,0.04653,-0.00011,-0.00201,-0.04753
-0.00995,0.03796,0.05598,-0.00011,-0.00199,-0.04753
-0.00995,0.03796,0.06542,-0.00012,-0.00199,-0.04755
-0.00995,0.03796,0.07487,-0.00011,-0.00200,-0.04755
-0.00051,0.03796,0.07487,-0.00011,-0.00200,-0.04755
-0.00051,0.03796,0.06542,-0.00012,-0.00200,-0.04755
-0.00051,0.03796,0.05598,-0.00010,-0.00200,-0.04754
-0.00051,0.03796,0.04653,-0.00010,-0.00202,-0.04754
-0.00051,0.03796,0.03709,-0.00010,-0.00202,-0.04754
-0.00051,0.03796,0.02764,-0.00010,-0.00203,-0.04753
-0.00051,0.03796,0.01820,-0.00009,-0.00204,-0.04753
-0.00051,0.03796,0.00875,-0.00010,-0.00204,-0.04753
-0.00051,0.03796,-0.00069,-0.00009,-0.00205,-0.04754
-0.00051,0.03796,-0.01013,-0.00009,-0.00206,-0.04755
-0.00051,0.03796,-0.01958,-0.00009,-0.00205,-0.04756
-0.00051,0.03796,-0.02902,-0.00008,-0.00205,-0.04757
-0.00051,0.03796,-0.03847,-0.00007,-0.00205,-0.04759
-0.00051,0.03796,-0.04791,-0.00007,-0.00204,-0.04760
-0.00051,0.03796,-0.05736,-0.00006,-0.00204,-0.04762
-0.00051,0.03796,-0.06680,-0.00007,-0.00205,-0.04764
-0.00051,0.03796,-0.07625,-0.00007,-0.00203,-0.04766
0.00893,0.03796,-0.06680,-0.00007,-0.00204,-0.04766
0.00893,0.03796,-0.05736,-0.00009,-0.00205,-0.04763
0.00893,0.03796,-0.04791,-0.00008,-0.00206,-0.04762
0.00893,0.03796,-0.03847,-0.00008,-0.00205,-0.04760
0.00893,0.03796,-0.02902,-0.00009,-0.00205,-0.04758
0.00893,0.03796,-0.01958,-0.00008,-0.00205,-0.04757
0.00893,0.03796,-0.01013,-0.00009,-0.00205,-0.04755
0.00893,0.03796,-0.00069,-0.00010,-0.00205,-0.04755
0.00893,0.03796,0.00875,-0.00009,-0.00204,-0.04755
0.00893,0.03796,0.01820,-0.00009,-0.00204,-0.04753
0.00893,0.03796,0.02764,-0.00009,-0.00203,-0.04754
0.00893,0.03796,0.03709,-0.00011,-0.00203,-0.04753
0.00893,0.03796,0.04653,-0.00010,-0.00203,-0.04754
0.00893,0.03796,0.05598,-0.00011,-0.00202,-0.04754
0.00893,0.03796,0.06542,-0.00013,-0.00201,-0.04755
0.00893,0.03796,0.07487,-0.00012,-0.00200,-0.04756
0.01838,0.03796,0.06542,-0.00010,-0.00201,-0.04755
0.01838,0.03796,0.05598,-0.00011,-0.00201,-0.04755
0.01838,0.03796,0.04653,-0.00010,-0.00202,-0.04754
0.01838,0.03796,0.03709,-0.00010,-0.00202,-0.04754
0.01838,0.03796,0.02764,-0.00010,-0.00203,-0.04754
0.01838,0.03796,0.01820,-0.00010,-0.00205,-0.04754
0.01838,0.03796,0.00875,-0.00010,-0.00205,-0.04754
0.01838,0.03796,-0.00069,-0.00010,-0.00205,-0.04755
0.01838,0.03796,-0.01013,-0.00010,-0.00206,-0.04755
0.01838,0.03796,-0.01958,-0.00009,-0.00206,-0.04756
0.01838,0.03796,-0.02902,-0.00009,-0.00205,-0.04757
0.01838,0.03796,-0.03847,-0.00011,-0.00206,-0.04758
0.01838,0.03796,-0.04791,-0.00010,-0.00205,-0.04760
0.01838,0.03796,-0.05736,-0.00010,-0.00205,-0.04762
0.01838,0.03796,-0.06680,-0.00011,-0.00205,-0.04764
0.02782,0.03796,-0.06680,-0.00011,-0.00205,-0.04764
0.02782,0.03796,-0.05736,-0.00012,-0.00205,-0.04763
0.02782,0.03796,-0.04791,-0.00011,-0.00205,-0.04761
0.02782,0.03796,-0.03847,-0.00011,-0.00206,-0.04759
0.02782,0.03796,-0.02902,-0.00011,-0.00206,-0.04757
0.02782,0.03796,-0.01958,-0.00010,-0.00205,-0.04757
0.02782,0.03796,-0.01013,-0.00011,-0.00205,-0.04755
0.02782,0.03796,-0.00069,-0.00010,-0.00205,-0.04755
0.02782,0.03796,0.00875,-0.00010,-0.00205,-0.04754
0.02782,0.03796,0.01820,-0.00010,-0.00204,-0.04754
0.02782,0.03796,0.02764,-0.00009,-0.00204,-0.04754
0.02782,0.03796,0.03709,-0.00011,-0.00203,-0.04754
0.02782,0.03796,0.04653,-0.00011,-0.00202,-0.04754
0.02782,0.03796,0.05598,-0.00010,-0.00201,-0.04755
0.02782,0.03796,0.06542,-0.00012,-0.00202,-0.04756
0.03727,0.03796,0.06542,-0.00012,-0.00201,-0.04757
0.03727,0.03796,0.05598,-0.00010,-0.00201,-0.04757
0.03727,0.03796,0.04653,-0.00010,-0.00202,-0.04755
0.03727,0.03796,0.03709,-0.00010,-0.00202,-0.04755
0.03727,0.03796,0.02764,-0.00010,-0.00205,-0.04753
0.03727,0.03796,0.01820,-0.00010,-0.00205,-0.04754
0.03727,0.03796,0.00875,-0.00010,-0.00204,-0.04754
0.03727,0.03796,-0.00069,-0.00010,-0.00205,-0.04754
0.03727,0.03796,-0.01013,-0.00010,-0.00206,-0.04755
0.03727,0.03796,-0.01958,-0.00010,-0.00205,-0.04755
0.03727,0.03796,-0.02902,-0.00011,-0.00206,-0.04756
0.03727,0.03796,-0.03847,-0.00012,-0.00206,-0.04758
0.03727,0.03796,-0.04791,-0.00012,-0.00205,-0.04759
0.03727,0.03796,-0.05736,-0.00014,-0.00206,-0.04761
0.03727,0.03796,-0.06680,-0.00015,-0.00204,-0.04762
0.04671,0.03796,-0.05736,-0.00014,-0.00206,-0.04761
0.04671,0.03796,-0.04791,-0.00013,-0.00205,-0.04759
0.04671,0.03796,-0.03847,-0.00012,-0.00206,-0.04758
0.04671,0.03796,-0.02902,-0.00012,-0.00207,-0.04757
0.04671,0.03796,-0.01958,-0.00012,-0.00206,-0.04755
0.04671,0.03796,-0.01013,-0.00011,-0.00206,-0.04755
0.04671,0.03796,-0.00069,-0.00011,-0.00205,-0.04754
0.04671,0.03796,0.00875,-0.00011,-0.00205,-0.04754
0.04671,0.03796,0.01820,-0.00010,-0.00205,-0.04754
0.04671,0.03796,0.02764,-0.00010,-0.00204,-0.04753
0.04671,0.03796,0.03709,0.00000,0.00000,0.00000
0.04671,0.03796,0.04653,-0.00010,-0.00202,-0.04755
0.04671,0.03796,0.05598,-0.00009,-0.00202,-0.04756
0.05616,0.03796,0.04653,-0.00010,-0.00202,-0.04755
0.05616,0.03796,0.03709,-0.00009,-0.00204,-0.04755
0.05616,0.03796,0.02764,-0.00008,-0.00204,-0.04754
0.05616,0.03796,0.01820,-0.00010,-0.00205,-0.04754
0.05616,0.03796,0.00875,-0.00009,-0.00205,-0.04753
0.05616,0.03796,-0.00069,-0.00011,-0.00206,-0.04753
0.05616,0.03796,-0.01013,-0.00011,-0.00206,-0.04753
0.05616,0.03796,-0.01958,-0.00010,-0.00207,-0.04754
0.05616,0.03796,-0.02902,-0.00012,-0.00206,-0.04755
0.05616,0.03796,-0.03847,-0.00012,-0.00206,-0.04756
0.05616,0.03796,-0.04791,-0.00014,-0.00206,-0.04756
0.06560,0.03796,-0.02902,-0.00012,-0.00206,-0.04756
0.06560,0.03796,-0.01958,-0.00011,-0.00206,-0.04754
0.06560,0.03796,-0.01013,-0.00011,-0.00206,-0.04753
0.06560,0.03796,-0.00069,-0.00010,-0.00206,-0.04753
0.06560,0.03796,0.00875,-0.00009,-0.00205,-0.04753
0.06560,0.03796,0.01820,-0.00009,-0.00205,-0.04753
0.06560,0.03796,0.02764,-0.00009,-0.00204,-0.04753
0.06560,0.03796,0.03709,-0.00009,-0.00202,-0.04754
0.07505,0.03796,0.00875,-0.00009,-0.00205,-0.04753
0.07505,0.03796,-0.00069,-0.00010,-0.00205,-0.04752
0.07505,0.03796,-0.01013,-0.00011,-0.00205,-0.04753
0.06560,0.04740,0.01820,-0.00010,-0.00204,-0.04753
0.06560,0.04740,0.00875,-0.00009,-0.00204,-0.04753
0.06560,0.04740,-0.00069,-0.00010,-0.00206,-0.04753
0.06560,0.04740,-0.01013,-0.00010,-0.00207,-0.04753
0.06560,0.04740,-0.01958,-0.00011,-0.00207,-0.04753
0.05616,0.04740,-0.03847,-0.00012,-0.00208,-0.04754
0.05616,0.04740,-0.02902,-0.00012,-0.00207,-0.04756
0.05616,0.04740,-0.01958,-0.00011,-0.00207,-0.04755
0.05616,0.04740,-0.01013,-0.00010,-0.00207,-0.04754
0.05616,0.04740,-0.00069,-0.00011,-0.00206,-0.04754
0.05616,0.04740,0.00875,-0.00010,-0.00206,-0.04753
0.05616,0.04740,0.01820,-0.00009,-0.00204,-0.04753
0.05616,0.04740,0.02764,-0.00009,-0.00203,-0.04753
0.05616,0.04740,0.03709,-0.00009,-0.00202,-0.04753
0.04671,0.04740,0.04653,-0.00010,-0.00202,-0.04755
0.04671,0.04740,0.03709,-0.00009,-0.00203,-0.04754
0.04671,0.04740,0.02764,-0.00010,-0.00205,-0.04753
0.04671,0.04740,0.01820,-0.00009,-0.00205,-0.04753
0.04671,0.04740,0.00875,-0.00009,-0.00206,-0.04753
0.04671,0.04740,-0.00069,-0.00011,-0.00206,-0.04753
0.04671,0.04740,-0.01013,-0.00009,-0.00206,-0.04754
0.04671,0.04740,-0.01958,-0.00010,-0.00207,-0.04754
0.04671,0.04740,-0.02902,-0.00013,-0.00207,-0.04756
0.04671,0.04740,-0.03847,-0.00012,-0.00208,-0.04757
0.04671,0.04740,-0.04791,-0.00014,-0.00207,-0.04758
0.03727,0.04740,-0.05736,-0.00015,-0.00207,-0.04760
0.03727,0.04740,-0.04791,-0.00013,-0.00206,-0.04760
0.03727,0.04740,-0.03847,-0.00013,-0.00206,-0.04759
0.03727,0.04740,-0.02902,-0.00012,-0.00207,-0.04757
0.03727,0.04740,-0.01958,-0.00012,-0.00207,-0.04756
0.03727,0.04740,-0.01013,-0.00011,-0.00206,-0.04755
0.03727,0.04740,-0.00069,-0.00011,-0.00206,-0.04754
0.03727,0.04740,0.00875,-0.00010,-0.00205,-0.04753
0.03727,0.04740,0.01820,-0.00010,-0.00205,-0.04753
0.03727,0.04740,0.02764,-0.00010,-0.00205,-0.04753
0.03727,0.04740,0.03709,-0.00010,-0.00204,-0.04753
0.03727,0.04740,0.04653,-0.00010,-0.00202,-0.04754
0.03727,0.04740,0.05598,-0.00010,-0.00202,-0.04755
0.02782,0.04740,0.05598,-0.00012,-0.00201,-0.04755
0.02782,0.04740,0.04653,-0.00011,-0.00202,-0.04754
0.02782,0.04740,0.03709,-0.00010,-0.00203,-0.04754
0.02782,0.04740,0.02764,-0.00010,-0.00204,-0.04753
0.02782,0.04740,0.01820,-0.00010,-0.00206,-0.04753
0.02782,0.04740,0.00875,-0.00010,-0.00206,-0.04753
0.02782,0.04740,-0.00069,-0.00010,-0.00207,-0.04754
0.02782,0.04740,-0.01013,-0.00010,-0.00206,-0.04755
0.02782,0.04740,-0.01958,-0.00011,-0.00206,-0.04755
0.02782,0.04740,-0.02902,-0.00010,-0.00208,-0.04757
0.02782,0.04740,-0.03847,-0.00011,-0.00207,-0.04758
0.02782,0.04740,-0.04791,-0.00011,-0.00206,-0.04759
0.02782,0.04740,-0.05736,-0.00013,-0.00206,-0.04761
0.01838,0.04740,-0.06680,-0.00014,-0.00206,-0.04763
0.01838,0.04740,-0.05736,-0.00011,-0.00206,-0.04763
0.01838,0.04740,-0.04791,-0.00012,-0.00206,-0.04762
0.01838,0.04740,-0.03847,-0.00011,-0.00206,-0.04760
0.01838,0.04740,-0.02902,-0.00010,-0.00206,-0.04759
0.01838,0.04740,-0.01958,-0.00011,-0.00205,-0.04756
0.01838,0.04740,-0.01013,-0.00010,-0.00206,-0.04756
0.01838,0.04740,-0.00069,-0.00010,-0.00206,-0.04755
0.01838,0.04740,0.00875,-0.00011,-0.00205,-0.04754
0.01838,0.04740,0.01820,-0.00010,-0.00205,-0.04753
0.01838,0.04740,0.02764,-0.00010,-0.00204,-0.04753
0.01838,0.04740,0.03709,-0.00011,-0.00202,-0.04753
0.01838,0.04740,0.04653,-0.00011,-0.00203,-0.04753
0.01838,0.04740,0.05598,-0.00011,-0.00201,-0.04754
0.01838,0.04740,0.06542,-0.00012,-0.00200,-0.04755
0.00893,0.04740,0.06542,-0.00011,-0.00199,-0.04756
0.00893,0.04740,0.05598,-0.00013,-0.00201,-0.04754
0.00893,0.04740,0.04653,-0.00010,-0.00202,-0.04753
0.00893,0.04740,0.03709,-0.00010,-0.00203,-0.04753
0.00893,0.04740,0.02764,-0.00010,-0.00204,-0.04753
0.00893,0.04740,0.01820,-0.00010,-0.00205,-0.04753
0.00893,0.04740,0.00875,-0.00010,-0.00205,-0.04754
0.00893,0.04740,-0.00069,-0.00010,-0.00205,-0.04754
0.00893,0.04740,-0.01013,-0.00010,-0.00206,-0.04755
0.00893,0.04740,-0.01958,-0.00009,-0.00206,-0.04756
0.00893,0.04740,-0.02902,-0.00008,-0.00206,-0.04757
0.00893,0.04740,-0.03847,-0.00009,-0.00206,-0.04759
0.00893,0.04740,-0.04791,-0.00010,-0.00206,-0.04760
0.00893,0.04740,-0.05736,-0.00009,-0.00205,-0.04763
0.00893,0.04740,-0.06680,-0.00009,-0.00206,-0.04764
-0.00051,0.04740,-0.06680,-0.00007,-0.00205,-0.04765
-0.00051,0.04740,-0.05736,-0.00008,-0.00205,-0.04764
-0.00051,0.04740,-0.04791,-0.00008,-0.00205,-0.04762
-0.00051,0.04740,-0.03847,-0.00009,-0.00206,-0.04760
-0.00051,0.04740,-0.02902,-0.00009,-0.00206,-0.04758
-0.00051,0.04740,-0.01958,-0.00009,-0.00206,-0.04757
-0.00051,0.04740,-0.01013,-0.00009,-0.00206,-0.04755
-0.00051,0.04740,-0.00069,-0.00010,-0.00206,-0.04754
-0.00051,0.04740,0.00875,-0.00009,-0.00204,-0.04754
-0.00051,0.04740,0.01820,-0.00010,-0.00204,-0.04753
-0.00051,0.04740,0.02764,-0.00011,-0.00203,-0.04752
-0.00051,0.04740,0.03709,-0.00011,-0.00203,-0.04753
-0.00051,0.04740,0.04653,-0.00011,-0.00201,-0.04753
-0.00051,0.04740,0.05598,-0.00012,-0.00200,-0.04753
-0.00051,0.04740,0.06542,-0.00012,-0.00199,-0.04754
-0.00995,0.04740,0.06542,-0.00012,-0.00198,-0.04754
-0.00995,0.04740,0.05598,-0.00012,-0.00199,-0.04753
-0.00995,0.04740,0.04653,-0.00011,-0.00201,-0.04753
-0.00995,0.04740,0.03709,-0.00010,-0.00202,-0.04752
-0.00995,0.04740,0.02764,-0.00010,-0.00203,-0.04752
-0.00995,0.04740,0.01820,-0.00010,-0.00203,-0.04752
-0.00995,0.04740,0.00875,-0.00009,-0.00204,-0.04753
-0.00995,0.04740,-0.00069,-0.00009,-0.00204,-0.04753
-0.00995,0.04740,-0.01013,-0.00008,-0.00205,-0.04754
-0.00995,0.04740,-0.01958,-0.00007,-0.00205,-0.04755
-0.00995,0.04740,-0.02902,-0.00008,-0.00205,-0.04757
-0.00995,0.04740,-0.03847,-0.00006,-0.00205,-0.04759
-0.00995,0.04740,-0.04791,-0.00007,-0.00205,-0.04760
-0.00995,0.04740,-0.05736,-0.00006,-0.00205,-0.04762
-0.00995,0.04740,-0.06680,-0.00006,-0.00205,-0.04765
-0.01940,0.04740,-0.06680,-0.00003,-0.00204,-0.04765
-0.01940,0.04740,-0.05736,-0.00004,-0.00205,-0.04763
-0.01940,0.04740,-0.04791,-0.00005,-0.00204,-0.04761
-0.01940,0.04740,-0.03847,-0.00005,-0.00205,-0.04759
-0.01940,0.04740,-0.02902,-0.00006,-0.00204,-0.04758
-0.01940,0.04740,-0.01958,-0.00007,-0.00204,-0.04756
-0.01940,0.04740,-0.01013,-0.00008,-0.00204,-0.04755
-0.01940,0.04740,-0.00069,-0.00009,-0.00204,-0.04753
-0.01940,0.04740,0.00875,-0.00009,-0.00204,-0.04753
-0.01940,0.04740,0.01820,-0.00010,-0.00202,-0.04752
-0.01940,0.04740,0.02764,-0.00010,-0.00202,-0.04752
-0.01940,0.04740,0.03709,-0.00012,-0.00202,-0.04752
-0.01940,0.04740,0.04653,-0.00012,-0.00200,-0.04752
-0.01940,0.04740,0.05598,-0.00012,-0.00200,-0.04753
-0.01940,0.04740,0.06542,-0.00012,-0.00198,-0.04754
-0.02884,0.04740,0.05598,-0.00012,-0.00200,-0.04753
-0.02884,0.04740,0.04653,-0.00011,-0.00199,-0.04752
-0.02884,0.04740,0.03709,-0.00010,-0.00201,-0.04752
-0.02884,0.04740,0.02764,-0.00008,-0.00202,-0.04751
-0.02884,0.04740,0.01820,-0.00010,-0.00203,-0.04751
-0.02884,0.04740,0.00875,-0.00008,-0.00203,-0.04752
-0.02884,0.04740,-0.00069,-0.00007,-0.00203,-0.04752
-0.02884,0.04740,-0.01013,-0.00006,-0.00204,-0.04753
-0.02884,0.04740,-0.01958,-0.00006,-0.00204,-0.04755
-0.02884,0.04740,-0.02902,-0.00006,-0.00204,-0.04756
-0.02884,0.04740,-0.03847,-0.00004,-0.00204,-0.04758
-0.02884,0.04740,-0.04791,-0.00004,-0.00204,-0.04759
-0.02884,0.04740,-0.05736,-0.00003,-0.00204,-0.04761
-0.03829,0.04740,-0.05736,0.00000,-0.00203,-0.04761
-0.03829,0.04740,-0.04791,0.00000,-0.00203,-0.04761
-0.03829,0.04740,-0.03847,-0.00002,-0.00204,-0.04758
-0.03829,0.04740,-0.02902,-0.00004,-0.00205,-0.04756
-0.03829,0.04740,-0.01958,-0.00005,-0.00204,-0.04754
-0.03829,0.04740,-0.01013,-0.00006,-0.00204,-0.04753
-0.03829,0.04740,-0.00069,-0.00008,-0.00203,-0.04752
-0.03829,0.04740,0.00875,-0.00007,-0.00203,-0.04752
-0.03829,0.04740,0.01820,-0.00009,-0.00202,-0.04751
-0.03829,0.04740,0.02764,-0.00009,-0.00202,-0.04751
-0.03829,0.04740,0.03709,-0.00010,-0.00200,-0.04751
-0.03829,0.04740,0.04653,-0.00011,-0.00199,-0.04752
-0.03829,0.04740,0.05598,-0.00011,-0.00198,-0.04752
-0.04773,0.04740,0.04653,-0.00010,-0.00199,-0.04752
-0.04773,0.04740,0.03709,-0.00009,-0.00199,-0.04751
-0.04773,0.04740,0.02764,-0.00010,-0.00201,-0.04750
-0.04773,0.04740,0.01820,-0.00009,-0.00201,-0.04750
-0.04773,0.04740,0.00875,-0.00007,-0.00202,-0.04750
-0.04773,0.04740,-0.00069,-0.00005,-0.00202,-0.04751
-0.04773,0.04740,-0.01013,-0.00003,-0.00202,-0.04752
-0.04773,0.04740,-0.01958,-0.00004,-0.00204,-0.04752
-0.04773,0.04740,-0.02902,-0.00003,-0.00204,-0.04754
-0.04773,0.04740,-0.03847,-0.00000,-0.00203,-0.04755
-0.04773,0.04740,-0.04791,0.00002,-0.00203,-0.04756
-0.05718,0.04740,-0.03847,0.00001,-0.00204,-0.04755
-0.05718,0.04740,-0.02902,-0.00002,-0.00202,-0.04753
-0.05718,0.04740,-0.01958,-0.00002,-0.00202,-0.04752
-0.05718,0.04740,-0.01013,-0.00004,-0.00201,-0.04751
-0.05718,0.04740,-0.00069,-0.00006,-0.00202,-0.04750
-0.05718,0.04740,0.00875,-0.00006,-0.00201,-0.04750
-0.05718,0.04740,0.01820,-0.00008,-0.00200,-0.04749
-0.05718,0.04740,0.02764,-0.00009,-0.00199,-0.04749
-0.05718,0.04740,0.03709,-0.00010,-0.00198,-0.04750
-0.06662,0.04740,0.01820,-0.00008,-0.00201,-0.04749
-0.06662,0.04740,0.00875,-0.00005,-0.00201,-0.04748
-0.06662,0.04740,-0.00069,-0.00003,-0.00201,-0.04748
-0.06662,0.04740,-0.01013,-0.00002,-0.00202,-0.04749
-0.06662,0.04740,-0.01958,-0.00001,-0.00203,-0.04749
-0.05718,0.05685,0.02764,-0.00005,-0.00200,-0.04749
-0.05718,0.05685,0.01820,-0.00010,-0.00199,-0.04749
-0.05718,0.05685,0.00875,-0.00009,-0.00200,-0.04748
-0.05718,0.05685,-0.00069,-0.00006,-0.00202,-0.04749
-0.05718,0.05685,-0.01013,-0.00005,-0.00202,-0.04750
-0.05718,0.05685,-0.01958,-0.00003,-0.00203,-0.04751
-0.04773,0.05685,-0.03847,0.00001,-0.00202,-0.04754
-0.04773,0.05685,-0.02902,-0.00003,-0.00203,-0.04755
-0.04773,0.05685,-0.01958,-0.00005,-0.00203,-0.04753
-0.04773,0.05685,-0.01013,-0.00006,-0.00203,-0.04752
-0.04773,0.05685,-0.00069,-0.00008,-0.00203,-0.04751
-0.04773,0.05685,0.00875,-0.00008,-0.00202,-0.04750
-0.04773,0.05685,0.01820,-0.00009,-0.00201,-0.04749
-0.04773,0.05685,0.02764,-0.00011,-0.00200,-0.04749
-0.04773,0.05685,0.03709,-0.00011,-0.00199,-0.04750
-0.03829,0.05685,0.04653,-0.00010,-0.00197,-0.04750
-0.03829,0.05685,0.03709,-0.00011,-0.00199,-0.04750
-0.03829,0.05685,0.02764,-0.00010,-0.00200,-0.04750
-0.03829,0.05685,0.01820,-0.00009,-0.00202,-0.04750
-0.03829,0.05685,0.00875,-0.00009,-0.00202,-0.04750
-0.03829,0.05685,-0.00069,-0.00007,-0.00204,-0.04751
-0.03829,0.05685,-0.01013,-0.00007,-0.00203,-0.04752
-0.03829,0.05685,-0.01958,-0.00006,-0.00204,-0.04754
-0.03829,0.05685,-0.02902,-0.00004,-0.00204,-0.04755
-0.03829,0.05685,-0.03847,-0.00004,-0.00204,-0.04756
-0.03829,0.05685,-0.04791,-0.00001,-0.00203,-0.04759
-0.02884,0.05685,-0.04791,-0.00004,-0.00204,-0.04760
-0.02884,0.05685,-0.03847,-0.00005,-0.00206,-0.04759
-0.02884,0.05685,-0.02902,-0.00006,-0.00205,-0.04757
-0.02884,0.05685,-0.01958,-0.00006,-0.00205,-0.04755
-0.02884,0.05685,-0.01013,-0.00007,-0.00204,-0.04754
-0.02884,0.05685,-0.00069,-0.00008,-0.00205,-0.04753
-0.02884,0.05685,0.00875,-0.00010,-0.00203,-0.04752
-0.02884,0.05685,0.01820,-0.00010,-0.00202,-0.04751
-0.02884,0.05685,0.02764,-0.00010,-0.00200,-0.04751
-0.02884,0.05685,0.03709,-0.00012,-0.00201,-0.04751
-0.02884,0.05685,0.04653,-0.00012,-0.00199,-0.04751
-0.01940,0.05685,0.05598,-0.00011,-0.00198,-0.04752
-0.01940,0.05685,0.04653,-0.00012,-0.00200,-0.04752
-0.01940,0.05685,0.03709,-0.00012,-0.00201,-0.04751
-0.01940,0.05685,0.02764,-0.00011,-0.00202,-0.04751
-0.01940,0.05685,0.01820,-0.00011,-0.00204,-0.04751
-0.01940,0.05685,0.00875,-0.00010,-0.00203,-0.04752
-0.01940,0.05685,-0.00069,-0.00010,-0.00204,-0.04753
-0.01940,0.05685,-0.01013,-0.00008,-0.00204,-0.04754
-0.01940,0.05685,-0.01958,-0.00007,-0.00206,-0.04755
-0.01940,0.05685,-0.02902,-0.00007,-0.00205,-0.04757
-0.01940,0.05685,-0.03847,-0.00006,-0.00205,-0.04758
-0.01940,0.05685,-0.04791,-0.00005,-0.00205,-0.04760
-0.01940,0.05685,-0.05736,-0.00004,-0.00204,-0.04762
-0.00995,0.05685,-0.05736,-0.00007,-0.00205,-0.04763
-0.00995,0.05685,-0.04791,-0.00007,-0.00205,-0.04762
-0.00995,0.05685,-0.03847,-0.00009,-0.00206,-0.04760
-0.00995,0.05685,-0.02902,-0.00009,-0.00207,-0.04758
-0.00995,0.05685,-0.01958,-0.00009,-0.00206,-0.04756
-0.00995,0.05685,-0.01013,-0.00010,-0.00205,-0.04755
-0.00995,0.05685,-0.00069,-0.00011,-0.00204,-0.04754
-0.00995,0.05685,0.00875,-0.00011,-0.00204,-0.04753
-0.00995,0.05685,0.01820,-0.00011,-0.00204,-0.04752
-0.00995,0.05685,0.02764,-0.00011,-0.00203,-0.04752
-0.00995,0.05685,0.03709,-0.00012,-0.00202,-0.04751
-0.00995,0.05685,0.04653,-0.00012,-0.00200,-0.04751
-0.00995,0.05685,0.05598,-0.00011,-0.00199,-0.04752
-0.00051,0.05685,0.05598,-0.00014,-0.00199,-0.04752
-0.00051,0.05685,0.04653,-0.00011,-0.00201,-0.04752
-0.00051,0.05685,0.03709,-0.00012,-0.00202,-0.04752
-0.00051,0.05685,0.02764,-0.00012,-0.00203,-0.04752
-0.00051,0.05685,0.01820,-0.00010,-0.00204,-0.04752
-0.00051,0.05685,0.00875,-0.00011,-0.00204,-0.04752
-0.00051,0.05685,-0.00069,-0.00011,-0.00206,-0.04753
-0.00051,0.05685,-0.01013,-0.00010,-0.00207,-0.04754
-0.00051,0.05685,-0.01958,-0.00010,-0.00207,-0.04756
-0.00051,0.05685,-0.02902,-0.00009,-0.00206,-0.04757
-0.00051,0.05685,-0.03847,-0.00010,-0.00206,-0.04759
-0.00051,0.05685,-0.04791,-0.00009,-0.00207,-0.04761
-0.00051,0.05685,-0.05736,-0.00009,-0.00206,-0.04763
0.00893,0.05685,-0.05736,-0.00010,-0.00206,-0.04763
0.00893,0.05685,-0.04791,-0.00010,-0.00206,-0.04762
0.00893,0.05685,-0.03847,-0.00011,-0.00207,-0.04760
0.00893,0.05685,-0.02902,-0.00010,-0.00207,-0.04758
0.00893,0.05685,-0.01958,-0.00011,-0.00207,-0.04757
0.00893,0.05685,-0.01013,-0.00011,-0.00207,-0.04756
0.00893,0.05685,-0.00069,-0.00010,-0.00206,-0.04754
0.00893,0.05685,0.00875,-0.00010,-0.00206,-0.04753
0.00893,0.05685,0.01820,-0.00012,-0.00205,-0.04752
0.00893,0.05685,0.02764,-0.00010,-0.00204,-0.04752
0.00893,0.05685,0.03709,-0.00010,-0.00204,-0.04752
0.00893,0.05685,0.04653,-0.00013,-0.00202,-0.04752
0.00893,0.05685,0.05598,-0.00012,-0.00201,-0.04753
0.01838,0.05685,0.05598,-0.00013,-0.00200,-0.04753
0.01838,0.05685,0.04653,-0.00012,-0.00202,-0.04753
0.01838,0.05685,0.03709,-0.00011,-0.00205,-0.04752
0.01838,0.05685,0.02764,-0.00011,-0.00204,-0.04752
0.01838,0.05685,0.01820,-0.00012,-0.00205,-0.04752
0.01838,0.05685,0.00875,-0.00010,-0.00205,-0.04753
0.01838,0.05685,-0.00069,-0.00010,-0.00206,-0.04754
0.01838,0.05685,-0.01013,-0.00011,-0.00208,-0.04755
0.01838,0.05685,-0.01958,-0.00011,-0.00208,-0.04756
0.01838,0.05685,-0.02902,-0.00012,-0.00208,-0.04757
0.01838,0.05685,-0.03847,-0.00011,-0.00207,-0.04759
0.01838,0.05685,-0.04791,-0.00012,-0.00207,-0.04760
0.01838,0.05685,-0.05736,-0.00012,-0.00207,-0.04762
0.02782,0.05685,-0.05736,-0.00014,-0.00207,-0.04763
0.02782,0.05685,-0.04791,-0.00012,-0.00207,-0.04761
0.02782,0.05685,-0.03847,-0.00012,-0.00208,-0.04760
0.02782,0.05685,-0.02902,-0.00013,-0.00208,-0.04758
0.02782,0.05685,-0.01958,-0.00012,-0.00208,-0.04756
0.02782,0.05685,-0.01013,-0.00011,-0.00207,-0.04755
0.02782,0.05685,-0.00069,-0.00011,-0.00207,-0.04754
0.02782,0.05685,0.00875,-0.00011,-0.00207,-0.04753
0.02782,0.05685,0.01820,-0.00013,-0.00206,-0.04753
0.02782,0.05685,0.02764,-0.00011,-0.00204,-0.04752
0.02782,0.05685,0.03709,-0.00011,-0.00202,-0.04752
0.02782,0.05685,0.04653,-0.00012,-0.00203,-0.04753
0.02782,0.05685,0.05598,-0.00011,-0.00200,-0.04754
0.03727,0.05685,0.04653,-0.00011,-0.00202,-0.04753
0.03727,0.05685,0.03709,-0.00010,-0.00203,-0.04752
0.03727,0.05685,0.02764,-0.00011,-0.00206,-0.04752
0.03727,0.05685,0.01820,-0.00010,-0.00206,-0.04752
0.03727,0.05685,0.00875,-0.00010,-0.00206,-0.04753
0.03727,0.05685,-0.00069,-0.00010,-0.00208,-0.04753
0.03727,0.05685,-0.01013,-0.00011,-0.00207,-0.04754
0.03727,0.05685,-0.01958,-0.00012,-0.00207,-0.04755
0.03727,0.05685,-0.02902,-0.00012,-0.00208,-0.04756
0.03727,0.05685,-0.03847,-0.00012,-0.00207,-0.04758
0.03727,0.05685,-0.04791,-0.00013,-0.00207,-0.04759
0.04671,0.05685,-0.03847,-0.00011,-0.00207,-0.04758
0.04671,0.05685,-0.02902,-0.00013,-0.00208,-0.04756
0.04671,0.05685,-0.01958,-0.00012,-0.00208,-0.04755
0.04671,0.05685,-0.01013,-0.00012,-0.00209,-0.04754
0.04671,0.05685,-0.00069,-0.00010,-0.00207,-0.04754
0.04671,0.05685,0.00875,-0.00011,-0.00207,-0.04753
0.04671,0.05685,0.01820,-0.00010,-0.00205,-0.04752
0.04671,0.05685,0.02764,-0.00010,-0.00204,-0.04752
0.04671,0.05685,0.03709,-0.00009,-0.00203,-0.04753
0.05616,0.05685,0.02764,-0.00009,-0.00204,-0.04752
0.05616,0.05685,0.01820,-0.00010,-0.00206,-0.04752
0.05616,0.05685,0.00875,-0.00010,-0.00206,-0.04752
0.05616,0.05685,-0.00069,-0.00011,-0.00207,-0.04753
0.05616,0.05685,-0.01013,-0.00010,-0.00208,-0.04753
0.05616,0.05685,-0.01958,-0.00012,-0.00208,-0.04754
0.04671,0.06629,0.01820,-0.00010,-0.00206,-0.04753
0.04671,0.06629,0.00875,-0.00011,-0.00207,-0.04752
0.04671,0.06629,-0.00069,-0.00011,-0.00208,-0.04752
0.04671,0.06629,-0.01013,-0.00010,-0.00209,-0.04753
0.04671,0.06629,-0.01958,-0.00011,-0.00209,-0.04755
0.03727,0.06629,-0.02902,-0.00013,-0.00209,-0.04756
0.03727,0.06629,-0.01958,-0.00012,-0.00210,-0.04756
0.03727,0.06629,-0.01013,-0.00012,-0.00209,-0.04755
0.03727,0.06629,-0.00069,-0.00012,-0.00208,-0.04753
0.03727,0.06629,0.00875,-0.00010,-0.00208,-0.04752
0.03727,0.06629,0.01820,-0.00011,-0.00207,-0.04751
0.03727,0.06629,0.02764,-0.00010,-0.00206,-0.04751
0.02782,0.06629,0.03709,-0.00011,-0.00204,-0.04751
0.02782,0.06629,0.02764,-0.00011,-0.00206,-0.04751
0.02782,0.06629,0.01820,-0.00011,-0.00208,-0.04751
0.02782,0.06629,0.00875,-0.00011,-0.00208,-0.04752
0.02782,0.06629,-0.00069,-0.00011,-0.00209,-0.04753
0.02782,0.06629,-0.01013,-0.00012,-0.00209,-0.04754
0.02782,0.06629,-0.01958,-0.00012,-0.00211,-0.04756
0.02782,0.06629,-0.02902,-0.00012,-0.00209,-0.04757
0.02782,0.06629,-0.03847,-0.00012,-0.00209,-0.04759
0.01838,0.06629,-0.04791,-0.00013,-0.00208,-0.04761
0.01838,0.06629,-0.03847,-0.00012,-0.00210,-0.04760
0.01838,0.06629,-0.02902,-0.00013,-0.00210,-0.04759
0.01838,0.06629,-0.01958,-0.00011,-0.00209,-0.04757
0.01838,0.06629,-0.01013,-0.00011,-0.00209,-0.04755
0.01838,0.06629,-0.00069,-0.00011,-0.00208,-0.04754
0.01838,0.06629,0.00875,-0.00012,-0.00207,-0.04753
0.01838,0.06629,0.01820,-0.00012,-0.00207,-0.04752
0.01838,0.06629,0.02764,-0.00012,-0.00206,-0.04751
0.01838,0.06629,0.03709,-0.00012,-0.00204,-0.04750
0.01838,0.06629,0.04653,-0.00012,-0.00203,-0.04750
0.00893,0.06629,0.04653,-0.00014,-0.00203,-0.04751
0.00893,0.06629,0.03709,-0.00012,-0.00204,-0.04751
0.00893,0.06629,0.02764,-0.00012,-0.00205,-0.04751
0.00893,0.06629,0.01820,-0.00012,-0.00206,-0.04752
0.00893,0.06629,0.00875,-0.00011,-0.00207,-0.04752
0.00893,0.06629,-0.00069,-0.00012,-0.00207,-0.04753
0.00893,0.06629,-0.01013,-0.00011,-0.00208,-0.04754
0.00893,0.06629,-0.01958,-0.00011,-0.00208,-0.04756
0.00893,0.06629,-0.02902,-0.00010,-0.00208,-0.04757
0.00893,0.06629,-0.03847,-0.00010,-0.00207,-0.04759
0.00893,0.06629,-0.04791,-0.00010,-0.00207,-0.04761
-0.00051,0.06629,-0.04791,-0.00008,-0.00207,-0.04762
-0.00051,0.06629,-0.03847,-0.00011,-0.00208,-0.04760
-0.00051,0.06629,-0.02902,-0.00011,-0.00208,-0.04759
-0.00051,0.06629,-0.01958,-0.00011,-0.00207,-0.04756
-0.00051,0.06629,-0.01013,-0.00012,-0.00207,-0.04755
-0.00051,0.06629,-0.00069,-0.00011,-0.00207,-0.04754
-0.00051,0.06629,0.00875,-0.00012,-0.00207,-0.04752
-0.00051,0.06629,0.01820,-0.00013,-0.00205,-0.04752
-0.00051,0.06629,0.02764,-0.00013,-0.00204,-0.04751
-0.00051,0.06629,0.03709,-0.00012,-0.00203,-0.04750
-0.00051,0.06629,0.04653,-0.00013,-0.00201,-0.04750
-0.00995,0.06629,0.04653,-0.00012,-0.00200,-0.04749
-0.00995,0.06629,0.03709,-0.00012,-0.00202,-0.04750
-0.00995,0.06629,0.02764,-0.00012,-0.00204,-0.04750
-0.00995,0.06629,0.01820,-0.00011,-0.00205,-0.04751
-0.00995,0.06629,0.00875,-0.00011,-0.00205,-0.04752
-0.00995,0.06629,-0.00069,-0.00011,-0.00205,-0.04753
-0.00995,0.06629,-0.01013,-0.00010,-0.00206,-0.04754
-0.00995,0.06629,-0.01958,-0.00010,-0.00207,-0.04755
-0.00995,0.06629,-0.02902,-0.00010,-0.00208,-0.04757
-0.00995,0.06629,-0.03847,-0.00008,-0.00207,-0.04759
-0.00995,0.06629,-0.04791,-0.00009,-0.00206,-0.04761
-0.01940,0.06629,-0.04791,-0.00006,-0.00206,-0.04762
-0.01940,0.06629,-0.03847,-0.00008,-0.00206,-0.04759
-0.01940,0.06629,-0.02902,-0.00007,-0.00206,-0.04758
-0.01940,0.06629,-0.01958,-0.00009,-0.00205,-0.04756
-0.01940,0.06629,-0.01013,-0.00010,-0.00205,-0.04754
-0.01940,0.06629,-0.00069,-0.00010,-0.00206,-0.04753
-0.01940,0.06629,0.00875,-0.00011,-0.00205,-0.04752
-0.01940,0.06629,0.01820,-0.00010,-0.00204,-0.04751
-0.01940,0.06629,0.02764,-0.00013,-0.00203,-0.04750
-0.01940,0.06629,0.03709,-0.00013,-0.00201,-0.04750
-0.01940,0.06629,0.04653,-0.00013,-0.00200,-0.04750
-0.02884,0.06629,0.03709,-0.00013,-0.00202,-0.04750
-0.02884,0.06629,0.02764,-0.00012,-0.00202,-0.04749
-0.02884,0.06629,0.01820,-0.00011,-0.00203,-0.04749
-0.02884,0.06629,0.00875,-0.00011,-0.00204,-0.04751
-0.02884,0.06629,-0.00069,-0.00010,-0.00205,-0.04751
-0.02884,0.06629,-0.01013,-0.00008,-0.00205,-0.04753
-0.02884,0.06629,-0.01958,-0.00008,-0.00205,-0.04754
-0.02884,0.06629,-0.02902,-0.00005,-0.00205,-0.04756
-0.02884,0.06629,-0.03847,-0.00005,-0.00204,-0.04758
-0.03829,0.06629,-0.02902,-0.00007,-0.00205,-0.04757
-0.03829,0.06629,-0.01958,-0.00006,-0.00204,-0.04755
-0.03829,0.06629,-0.01013,-0.00008,-0.00204,-0.04753
-0.03829,0.06629,-0.00069,-0.00008,-0.00204,-0.04752
-0.03829,0.06629,0.00875,-0.00009,-0.00203,-0.04750
-0.03829,0.06629,0.01820,-0.00010,-0.00202,-0.04750
-0.03829,0.06629,0.02764,-0.00012,-0.00202,-0.04749
-0.04773,0.06629,0.01820,-0.00012,-0.00202,-0.04749
-0.04773,0.06629,0.00875,-0.00009,-0.00202,-0.04749
-0.04773,0.06629,-0.00069,-0.00007,-0.00203,-0.04750
-0.04773,0.06629,-0.01013,-0.00007,-0.00204,-0.04751
-0.04773,0.06629,-0.01958,-0.00005,-0.00204,-0.04753
-0.03829,0.07574,-0.00069,-0.00009,-0.00203,-0.04751
-0.02884,0.07574,-0.01958,-0.00010,-0.00204,-0.04751
-0.02884,0.07574,-0.01013,-0.00009,-0.00206,-0.04754
-0.02884,0.07574,-0.00069,-0.00010,-0.00206,-0.04751
-0.02884,0.07574,0.00875,-0.00011,-0.00204,-0.04751
-0.02884,0.07574,0.01820,-0.00012,-0.00203,-0.04750
-0.01940,0.07574,0.02764,-0.00013,-0.00203,-0.04749
-0.01940,0.07574,0.01820,-0.00011,-0.00204,-0.04749
-0.01940,0.07574,0.00875,-0.00012,-0.00206,-0.04751
-0.01940,0.07574,-0.00069,-0.00011,-0.00206,-0.04751
-0.01940,0.07574,-0.01013,-0.00010,-0.00206,-0.04753
-0.01940,0.07574,-0.01958,-0.00010,-0.00207,-0.04755
-0.01940,0.07574,-0.02902,-0.00009,-0.00207,-0.04757
-0.00995,0.07574,-0.02902,-0.00010,-0.00208,-0.04757
-0.00995,0.07574,-0.01958,-0.00010,-0.00208,-0.04756
-0.00995,0.07574,-0.01013,-0.00012,-0.00207,-0.04755
-0.00995,0.07574,-0.00069,-0.00012,-0.00208,-0.04753
-0.00995,0.07574,0.00875,-0.00013,-0.00206,-0.04752
-0.00995,0.07574,0.01820,-0.00014,-0.00205,-0.04751
-0.00995,0.07574,0.02764,-0.00013,-0.00205,-0.04750
-0.00051,0.07574,0.03709,-0.00013,-0.00203,-0.04748
-0.00051,0.07574,0.02764,-0.00013,-0.00205,-0.04749
-0.00051,0.07574,0.01820,-0.00013,-0.00206,-0.04750
-0.00051,0.07574,0.00875,-0.00013,-0.00207,-0.04751
-0.00051,0.07574,-0.00069,-0.00013,-0.00207,-0.04752
-0.00051,0.07574,-0.01013,-0.00012,-0.00209,-0.04754
-0.00051,0.07574,-0.01958,-0.00012,-0.00208,-0.04755
-0.00051,0.07574,-0.02902,-0.00012,-0.00209,-0.04757
-0.00051,0.07574,-0.03847,-0.00010,-0.00208,-0.04759
0.00893,0.07574,-0.02902,-0.00012,-0.00209,-0.04759
0.00893,0.07574,-0.01958,-0.00012,-0.00210,-0.04757
0.00893,0.07574,-0.01013,-0.00013,-0.00210,-0.04755
0.00893,0.07574,-0.00069,-0.00013,-0.00208,-0.04754
0.00893,0.07574,0.00875,-0.00013,-0.00208,-0.04752
0.00893,0.07574,0.01820,-0.00013,-0.00207,-0.04751
0.00893,0.07574,0.02764,-0.00014,-0.00206,-0.04750
0.01838,0.07574,0.02764,-0.00013,-0.00207,-0.04750
0.01838,0.07574,0.01820,-0.00014,-0.00209,-0.04750
0.01838,0.07574,0.00875,-0.00013,-0.00209,-0.04751
0.01838,0.07574,-0.00069,-0.00012,-0.00209,-0.04752
0.01838,0.07574,-0.01013,-0.00013,-0.00210,-0.04754
0.01838,0.07574,-0.01958,-0.00012,-0.00211,-0.04755
0.01838,0.07574,-0.02902,-0.00013,-0.00211,-0.04757
0.02782,0.07574,-0.01958,-0.00012,-0.00210,-0.04756
0.02782,0.07574,-0.01013,-0.00013,-0.00211,-0.04755
0.02782,0.07574,-0.00069,-0.00012,-0.00211,-0.04753
0.02782,0.07574,0.00875,-0.00013,-0.00211,-0.04751
0.02782,0.07574,0.01820,-0.00012,-0.00209,-0.04751
0.03727,0.07574,-0.00069,-0.00011,-0.00210,-0.04752
